"subject","session","congruency","trialType","ITI","accuracy","rt","trialNum","respType","feedType","blockNum","firstOfBlock","priorAccuracy","priorCongruency","priorBad","currentBad"
5202,1,1,1,518,1,703,18,1,1,2,0,111,2,0,0
5202,1,2,3,503,1,837,22,1,1,2,0,111,2,0,0
5202,1,1,1,513,1,660,23,1,1,2,0,111,2,0,0
5202,1,2,3,553,1,714,25,1,1,2,0,111,2,0,0
5202,1,1,1,499,1,697,26,1,1,2,0,111,2,0,0
5202,1,2,4,547,1,1486,28,1,1,2,0,111,2,0,0
5202,1,1,2,440,1,650,29,1,1,2,0,111,2,0,0
5202,1,1,2,465,1,639,31,1,1,2,0,111,2,0,0
5202,1,1,1,500,1,687,34,1,1,2,0,111,2,0,0
5202,1,1,2,405,1,857,37,1,1,2,0,111,2,0,0
5202,1,1,1,597,1,666,41,1,1,2,0,111,2,0,0
5202,1,2,3,524,1,990,45,1,1,2,0,111,2,0,0
5202,1,2,3,431,1,973,46,1,1,2,0,111,2,0,0
5202,1,1,2,406,1,722,47,1,1,2,0,111,2,0,0
5202,1,1,2,389,1,634,50,1,3,3,0,111,2,0,0
5202,1,2,3,517,1,810,53,1,3,3,0,111,2,0,0
5202,1,1,2,332,1,684,54,1,3,3,0,111,2,0,0
5202,1,2,3,496,1,1135,57,1,3,3,0,111,2,0,0
5202,1,1,2,397,1,758,58,1,3,3,0,111,2,0,0
5202,1,1,1,535,1,941,62,1,3,3,0,111,2,0,0
5202,1,1,2,451,1,712,67,1,3,3,0,111,2,0,0
5202,1,2,4,539,1,777,78,1,3,3,0,111,2,0,0
5202,1,2,3,385,1,1177,86,1,2,4,0,111,2,0,0
5202,1,1,2,419,1,699,87,1,2,4,0,111,2,0,0
5202,1,2,3,487,1,953,90,1,2,4,0,111,2,0,0
5202,1,1,1,577,1,670,91,1,2,4,0,111,2,0,0
5202,1,2,4,418,0,983,95,2,2,4,0,111,2,0,0
5202,1,2,3,575,1,1328,101,1,2,4,0,111,2,0,0
5202,1,1,2,544,1,655,108,1,2,4,0,100,2,0,0
5202,1,1,2,563,1,688,117,1,4,5,0,111,2,0,0
5202,1,1,1,456,1,1060,125,1,4,5,0,111,2,0,0
5202,1,2,3,534,1,979,127,1,4,5,0,111,2,0,0
5202,1,1,1,465,1,788,136,1,4,5,0,111,2,0,0
5202,1,1,2,589,1,796,144,1,4,5,0,111,2,0,0
5202,1,1,1,394,1,658,146,1,2,6,0,100,2,0,0
5202,1,2,4,466,1,740,149,1,2,6,0,111,2,0,0
5202,1,1,2,416,1,677,150,1,2,6,0,111,2,0,0
5202,1,2,3,557,1,823,155,1,2,6,0,111,2,0,0
5202,1,2,4,565,1,821,156,1,2,6,0,111,2,0,0
5202,1,2,4,594,1,1189,157,1,2,6,0,111,2,0,0
5202,1,1,1,410,1,702,158,1,2,6,0,111,2,0,0
5202,1,1,2,599,1,734,160,1,2,6,0,111,2,0,0
5202,1,1,2,407,1,699,165,1,2,6,0,111,2,0,0
5202,1,2,4,517,0,961,173,2,2,6,0,100,2,0,0
5202,1,2,4,342,1,834,174,1,2,6,0,100,2,0,0
5202,1,1,1,562,1,721,175,1,2,6,0,111,2,0,0
5202,1,1,1,562,1,425,178,1,2,7,0,111,2,0,0
5202,1,1,2,318,1,559,180,1,2,7,0,111,2,0,0
5202,1,2,4,465,1,622,182,1,2,7,0,111,2,0,0
5202,1,2,4,555,1,652,183,1,2,7,0,111,2,0,0
5202,1,1,2,345,1,1005,184,1,2,7,0,111,2,0,0
5202,1,2,3,532,1,877,190,1,2,7,0,111,2,0,0
5202,1,1,2,332,1,666,191,1,2,7,0,111,2,0,0
5202,1,1,1,416,1,903,195,1,2,7,0,111,2,0,0
5202,1,2,4,401,1,1100,197,1,2,7,0,111,2,0,0
5202,1,2,3,349,1,829,198,1,2,7,0,111,2,0,0
5202,1,1,2,383,1,1300,199,1,2,7,0,111,2,0,0
5202,1,1,2,336,1,769,201,1,2,7,0,111,2,0,0
5202,1,1,2,581,1,733,207,1,2,7,0,100,2,0,0
5202,1,2,4,592,1,736,210,1,2,8,0,111,2,0,0
5202,1,1,1,475,1,464,211,1,2,8,0,111,2,0,0
5202,1,1,1,470,1,776,215,1,2,8,0,111,2,0,0
5202,1,2,4,329,1,778,218,1,2,8,0,111,2,0,0
5202,1,2,4,439,1,901,219,1,2,8,0,111,2,0,0
5202,1,2,3,353,1,1240,220,1,2,8,0,111,2,0,0
5202,1,1,1,413,1,772,221,1,2,8,0,111,2,0,0
5202,1,1,2,456,1,642,223,1,2,8,0,111,2,0,0
5202,1,2,3,592,1,957,227,1,2,8,0,100,2,0,0
5202,1,2,3,461,1,772,228,1,2,8,0,111,2,0,0
5202,1,1,2,544,1,599,229,1,2,8,0,111,2,0,0
5202,1,2,4,558,1,691,231,1,2,8,0,111,2,0,0
5202,1,1,1,584,1,611,232,1,2,8,0,111,2,0,0
5202,1,1,2,544,1,932,235,1,2,8,0,111,2,0,0
5202,1,1,2,597,1,764,238,1,2,8,0,111,2,0,0
5202,1,2,4,523,1,812,244,1,3,9,0,111,2,0,0
5202,1,2,3,584,1,729,245,1,3,9,0,111,2,0,0
5202,1,2,3,339,1,738,246,1,3,9,0,111,2,0,0
5202,1,1,1,531,1,536,247,1,3,9,0,111,2,0,0
5202,1,2,4,535,1,605,249,1,3,9,0,111,2,0,0
5202,1,1,2,324,1,678,250,1,3,9,0,111,2,0,0
5202,1,1,2,397,1,588,252,1,3,9,0,111,2,0,0
5202,1,1,1,432,1,666,254,1,3,9,0,111,2,0,0
5202,1,2,4,557,1,712,258,1,3,9,0,111,2,0,0
5202,1,2,3,341,1,747,259,1,3,9,0,111,2,0,0
5202,1,1,2,345,1,975,260,1,3,9,0,111,2,0,0
5202,1,2,4,562,0,920,263,2,3,9,0,100,2,0,0
5202,1,2,4,383,1,1291,264,1,3,9,0,100,2,0,0
5202,1,1,2,455,1,683,265,1,3,9,0,111,2,0,0
5202,1,1,1,466,1,509,268,1,3,9,0,111,2,0,0
5202,1,1,2,589,1,848,272,1,3,9,0,100,2,0,0
5202,1,2,3,501,1,858,274,1,3,10,0,100,2,0,0
5202,1,1,2,496,1,523,275,1,3,10,0,111,2,0,0
5202,1,2,4,387,1,729,277,1,3,10,0,111,2,0,0
5202,1,2,3,495,1,786,278,1,3,10,0,111,2,0,0
5202,1,2,4,370,1,693,279,1,3,10,0,111,2,0,0
5202,1,1,2,413,1,569,280,1,3,10,0,111,2,0,0
5202,1,1,2,439,1,617,288,1,3,10,0,111,2,0,0
5202,1,2,3,443,1,679,290,1,3,10,0,111,2,0,0
5202,1,2,3,585,1,653,291,1,3,10,0,111,2,0,0
5202,1,2,4,375,1,755,292,1,3,10,0,111,2,0,0
5202,1,2,3,515,1,859,293,1,3,10,0,111,2,0,0
5202,1,1,2,339,1,625,294,1,3,10,0,111,2,0,0
5202,1,1,1,549,1,769,301,1,3,10,0,111,2,0,0
5202,1,2,4,555,1,1229,304,1,3,10,0,111,2,0,0
5202,1,2,4,409,1,625,307,1,2,11,0,111,2,0,0
5202,1,2,4,512,1,815,308,1,2,11,0,111,2,0,0
5202,1,1,2,469,1,586,309,1,2,11,0,111,2,0,0
5202,1,2,4,555,1,744,316,1,2,11,0,100,2,0,0
5202,1,2,3,524,1,700,317,1,2,11,0,111,2,0,0
5202,1,1,1,511,1,616,320,1,2,11,0,111,2,0,0
5202,1,2,4,489,1,681,323,1,2,11,0,111,2,0,0
5202,1,2,3,458,1,978,324,1,2,11,0,111,2,0,0
5202,1,1,1,546,1,890,325,1,2,11,0,111,2,0,0
5202,1,1,1,371,1,936,327,1,2,11,0,111,2,0,0
5202,1,1,1,577,1,591,330,1,2,11,0,111,2,0,0
5202,1,2,3,478,1,661,332,1,2,11,0,111,2,0,0
5202,1,1,2,557,1,717,333,1,2,11,0,111,2,0,0
5202,1,2,4,374,0,801,338,2,3,12,0,111,2,0,0
5202,1,1,1,365,1,759,339,1,3,12,0,100,2,0,0
5202,1,2,3,391,1,738,343,1,3,12,0,111,2,0,0
5202,1,1,1,514,1,581,344,1,3,12,0,111,2,0,0
5202,1,2,3,573,1,776,347,1,3,12,0,111,2,0,0
5202,1,2,3,569,1,1450,348,1,3,12,0,111,2,0,0
5202,1,1,1,543,1,715,349,1,3,12,0,111,2,0,0
5202,1,1,1,325,1,639,353,1,3,12,0,111,2,0,0
5202,1,2,3,550,1,974,359,1,3,12,0,111,2,0,0
5202,1,2,3,440,1,740,360,1,3,12,0,111,2,0,0
5202,1,2,4,352,1,744,361,1,3,12,0,111,2,0,0
5202,1,2,4,352,1,967,362,1,3,12,0,111,2,0,0
5202,1,2,3,516,1,791,363,1,3,12,0,111,2,0,0
5202,1,2,3,389,1,961,364,1,3,12,0,111,2,0,0
5202,1,1,1,397,1,674,365,1,3,12,0,111,2,0,0
5202,1,1,1,405,1,593,367,1,3,12,0,100,2,0,0
5204,1,2,4,437,1,375,20,1,1,2,0,111,2,0,0
5204,1,1,1,386,1,253,21,1,1,2,0,111,2,0,0
5204,1,1,1,406,1,279,23,1,1,2,0,111,2,0,0
5204,1,2,3,338,1,284,25,1,1,2,0,100,2,0,0
5204,1,1,2,388,1,256,26,1,1,2,0,111,2,0,0
5204,1,1,2,368,1,481,28,1,1,2,0,100,2,0,0
5204,1,1,1,540,0,237,31,2,1,2,0,111,2,0,0
5204,1,1,1,575,0,211,33,2,1,2,0,111,2,0,0
5204,1,1,2,556,1,307,36,1,1,2,0,111,2,0,0
5204,1,1,2,491,1,415,41,1,1,2,0,111,2,0,0
5204,1,1,1,429,1,224,43,1,1,2,0,111,2,0,0
5204,1,2,3,318,1,363,45,1,1,2,0,100,2,0,0
5204,1,2,4,494,0,216,46,2,1,2,0,111,2,0,0
5204,1,2,4,360,1,269,47,1,1,2,0,100,2,0,0
5204,1,2,4,416,0,408,48,2,1,2,0,111,2,0,0
5204,1,1,1,343,1,411,50,1,4,3,0,111,2,0,0
5204,1,2,4,467,0,201,52,2,4,3,0,100,2,0,0
5204,1,2,4,333,1,393,53,1,4,3,0,100,2,0,0
5204,1,1,2,365,1,466,54,1,4,3,0,111,2,0,0
5204,1,1,2,568,1,294,56,1,4,3,0,111,2,0,0
5204,1,2,4,396,0,361,61,2,4,3,0,100,2,0,0
5204,1,1,1,465,1,601,66,1,4,3,0,111,2,0,0
5204,1,1,1,308,1,342,68,1,4,3,0,111,2,0,0
5204,1,1,1,455,1,406,70,1,4,3,0,111,2,0,0
5204,1,1,2,345,1,274,73,1,4,3,0,111,2,0,0
5204,1,1,2,367,1,283,75,1,4,3,0,111,2,0,0
5204,1,1,1,429,1,395,78,1,4,3,0,100,2,0,0
5204,1,2,4,503,0,309,80,2,4,3,0,111,2,0,0
5204,1,1,1,355,1,286,85,1,4,4,0,100,2,0,0
5204,1,2,4,322,1,332,87,1,4,4,0,100,2,0,0
5204,1,1,2,437,1,210,88,1,4,4,0,111,2,0,0
5204,1,1,1,422,0,256,90,2,4,4,0,100,2,0,0
5204,1,2,4,500,0,335,93,2,4,4,0,100,2,0,0
5204,1,1,1,349,0,269,94,2,4,4,0,100,2,0,0
5204,1,2,3,589,0,322,96,2,4,4,0,111,2,0,0
5204,1,2,3,393,1,222,97,1,4,4,0,100,2,0,0
5204,1,1,1,308,1,334,98,1,4,4,0,111,2,0,0
5204,1,2,3,348,0,251,101,2,4,4,0,100,2,0,0
5204,1,1,2,447,0,157,102,2,4,4,0,100,2,0,0
5204,1,2,3,570,1,457,107,1,4,4,0,100,2,0,0
5204,1,1,2,511,1,392,108,1,4,4,0,111,2,0,0
5204,1,1,1,404,0,271,110,2,4,4,0,100,2,0,0
5204,1,1,2,493,0,182,116,2,4,5,0,100,2,0,0
5204,1,1,2,479,1,216,123,1,4,5,0,100,2,0,0
5204,1,1,2,482,1,556,125,1,4,5,0,100,2,0,0
5204,1,1,1,443,0,257,127,2,4,5,0,111,2,0,0
5204,1,2,3,597,1,434,131,1,4,5,0,111,2,0,0
5204,1,2,4,535,0,283,132,2,4,5,0,111,2,0,0
5204,1,1,2,505,1,306,133,1,4,5,0,100,2,0,0
5204,1,1,1,587,1,225,136,1,4,5,0,111,2,0,0
5204,1,1,1,496,1,246,138,1,4,5,0,111,2,0,0
5204,1,2,4,420,0,313,140,2,4,5,0,100,2,0,0
5204,1,1,2,454,1,312,141,1,4,5,0,100,2,0,0
5204,1,1,2,460,1,280,148,1,4,6,0,111,2,0,0
5204,1,2,3,570,1,207,151,1,4,6,0,111,2,0,0
5204,1,2,3,358,0,225,152,2,4,6,0,111,2,0,0
5204,1,2,4,360,0,272,153,2,4,6,0,100,2,0,0
5204,1,2,4,517,1,212,154,1,4,6,0,100,2,0,0
5204,1,2,4,530,0,350,155,2,4,6,0,111,2,0,0
5204,1,1,1,518,0,240,156,2,4,6,0,100,2,0,0
5204,1,1,1,583,1,201,160,1,4,6,0,100,2,0,0
5204,1,1,1,504,0,225,163,2,4,6,0,100,2,0,0
5204,1,2,4,577,0,288,166,2,4,6,0,100,2,0,0
5204,1,2,4,428,1,532,171,1,4,6,0,111,2,0,0
5204,1,2,4,541,0,267,172,2,4,6,0,111,2,0,0
5204,1,2,3,351,0,347,173,2,4,6,0,100,2,0,0
5204,1,1,2,552,0,210,174,2,4,6,0,100,2,0,0
5204,1,1,1,404,1,315,181,1,4,7,0,111,2,0,0
5204,1,1,1,397,1,436,183,1,4,7,0,100,2,0,0
5204,1,1,2,336,0,259,185,2,4,7,0,100,2,0,0
5204,1,1,2,417,1,451,187,1,4,7,0,111,2,0,0
5204,1,2,4,310,1,501,190,1,4,7,0,111,2,0,0
5204,1,2,3,493,1,561,191,1,4,7,0,111,2,0,0
5204,1,2,3,441,0,353,192,2,4,7,0,111,2,0,0
5204,1,2,3,507,1,248,193,1,4,7,0,100,2,0,0
5204,1,1,2,558,1,463,194,1,4,7,0,111,2,0,0
5204,1,2,4,583,1,454,197,1,4,7,0,111,2,0,0
5204,1,2,4,554,0,288,198,2,4,7,0,111,2,0,0
5204,1,2,4,300,1,392,199,1,4,7,0,100,2,0,0
5204,1,1,2,397,1,363,200,1,4,7,0,111,2,0,0
5204,1,2,3,429,0,311,205,2,4,7,0,111,2,0,0
5204,1,1,1,348,1,326,206,1,4,7,0,100,2,0,0
5204,1,1,2,370,1,469,212,1,4,8,0,111,2,0,0
5204,1,1,1,409,1,487,216,1,4,8,0,111,2,0,0
5204,1,2,4,536,1,328,219,1,4,8,0,111,2,0,0
5204,1,2,3,508,1,575,220,1,4,8,0,111,2,0,0
5204,1,2,3,539,0,359,221,2,4,8,0,111,2,0,0
5204,1,2,3,322,1,520,222,1,4,8,0,100,2,0,0
5204,1,2,4,536,1,454,223,1,4,8,0,111,2,0,0
5204,1,1,1,437,1,355,224,1,4,8,0,111,2,0,0
5204,1,2,4,557,0,326,226,2,4,8,0,111,2,0,0
5204,1,1,1,395,0,214,227,2,4,8,0,100,2,0,0
5204,1,1,1,393,1,209,230,1,4,8,0,100,2,0,0
5204,1,2,3,550,0,527,232,2,4,8,0,111,2,0,0
5204,1,2,3,442,1,550,233,1,4,8,0,100,2,0,0
5204,1,1,1,312,1,547,234,1,4,8,0,111,2,0,0
5204,1,1,2,564,1,544,236,1,4,8,0,111,2,0,0
5204,1,1,2,326,1,498,240,1,4,8,0,111,2,0,0
5204,1,1,1,462,1,489,242,1,2,9,0,111,2,0,0
5204,1,1,2,531,1,490,246,1,2,9,0,111,2,0,0
5204,1,1,2,323,1,481,248,1,2,9,0,111,2,0,0
5204,1,2,3,455,1,435,251,1,2,9,0,100,2,0,0
5204,1,2,4,360,1,508,252,1,2,9,0,111,2,0,0
5204,1,1,1,525,1,454,253,1,2,9,0,111,2,0,0
5204,1,2,3,387,1,403,256,1,2,9,0,111,2,0,0
5204,1,2,4,370,0,392,257,2,2,9,0,111,2,0,0
5204,1,2,3,361,1,476,258,1,2,9,0,100,2,0,0
5204,1,1,1,302,1,367,259,1,2,9,0,111,2,0,0
5204,1,1,1,377,0,198,262,2,2,9,0,100,2,0,0
5204,1,1,2,516,1,377,269,1,2,9,0,100,2,0,0
5204,1,1,2,416,1,362,271,1,2,9,0,111,2,0,0
5204,1,1,1,487,1,306,275,1,2,10,0,100,2,0,0
5204,1,1,2,433,1,358,277,1,2,10,0,111,2,0,0
5204,1,1,2,451,1,409,279,1,2,10,0,111,2,0,0
5204,1,1,1,596,0,360,281,2,2,10,0,111,2,0,0
5204,1,2,4,520,1,312,284,1,2,10,0,111,2,0,0
5204,1,1,1,551,1,307,285,1,2,10,0,111,2,0,0
5204,1,2,3,356,0,180,288,2,2,10,0,100,2,0,0
5204,1,1,1,547,1,350,289,1,2,10,0,100,2,0,0
5204,1,2,4,345,0,216,293,2,2,10,0,100,2,0,0
5204,1,1,1,599,1,357,294,1,2,10,0,100,2,0,0
5204,1,1,2,393,0,230,296,2,2,10,0,111,2,0,0
5204,1,1,2,473,1,306,299,1,2,10,0,111,2,0,0
5204,1,2,3,562,1,228,301,1,2,10,0,100,2,0,0
5204,1,2,4,490,0,315,302,2,2,10,0,111,2,0,0
5204,1,1,2,541,1,329,306,1,4,11,0,111,2,0,0
5204,1,2,4,308,1,205,308,1,4,11,0,100,2,0,0
5204,1,1,1,367,0,257,309,2,4,11,0,111,2,0,0
5204,1,1,1,487,0,247,313,2,4,11,0,100,2,0,0
5204,1,2,4,300,0,158,317,2,4,11,0,111,2,0,0
5204,1,1,2,584,1,167,318,1,4,11,0,100,2,0,0
5204,1,1,1,568,1,323,323,1,4,11,0,100,2,0,0
5204,1,2,3,497,0,331,328,2,4,11,0,111,2,0,0
5204,1,1,2,536,1,590,329,1,4,11,0,100,2,0,0
5204,1,2,3,339,1,236,335,1,4,11,0,100,2,0,0
5204,1,2,4,450,1,479,336,1,4,11,0,111,2,0,0
5204,1,2,3,322,1,404,339,1,4,12,0,111,2,0,0
5204,1,2,3,377,1,345,340,1,4,12,0,111,2,0,0
5204,1,1,1,401,1,339,341,1,4,12,0,111,2,0,0
5204,1,1,2,350,1,189,344,1,4,12,0,100,2,0,0
5204,1,2,4,497,1,414,346,1,4,12,0,111,2,0,0
5204,1,1,1,501,1,379,347,1,4,12,0,111,2,0,0
5204,1,1,1,464,1,320,349,1,4,12,0,111,2,0,0
5204,1,2,4,323,1,381,355,1,4,12,0,100,2,0,0
5204,1,1,2,574,1,391,356,1,4,12,0,111,2,0,0
5204,1,2,3,326,0,765,358,2,4,12,0,111,2,0,0
5204,1,2,4,422,1,513,359,1,4,12,0,100,2,0,0
5204,1,1,1,593,1,393,360,1,4,12,0,111,2,0,0
5204,1,2,4,569,1,668,362,1,4,12,0,100,2,0,0
5204,1,1,2,308,1,327,363,1,4,12,0,111,2,0,0
5206,1,2,3,424,1,734,19,1,1,2,0,100,2,0,0
5206,1,1,1,486,1,371,20,1,1,2,0,111,2,0,0
5206,1,1,1,474,1,405,24,1,1,2,0,100,2,0,0
5206,1,1,1,422,1,335,26,1,1,2,0,100,2,0,0
5206,1,2,4,453,1,608,28,1,1,2,0,100,2,0,0
5206,1,2,4,364,1,463,29,1,1,2,0,111,2,0,0
5206,1,2,4,335,1,427,30,1,1,2,0,111,2,0,0
5206,1,1,2,527,1,408,31,1,1,2,0,111,2,0,0
5206,1,2,3,492,1,494,34,1,1,2,0,100,2,0,0
5206,1,2,4,482,1,389,35,1,1,2,0,111,2,0,0
5206,1,2,4,425,1,534,36,1,1,2,0,111,2,0,0
5206,1,1,2,460,1,446,37,1,1,2,0,111,2,0,0
5206,1,1,1,486,1,422,41,1,1,2,0,111,2,0,0
5206,1,2,3,565,1,269,44,1,1,2,0,100,2,0,0
5206,1,1,2,448,1,625,45,1,1,2,0,111,2,0,0
5206,1,1,2,350,1,309,50,1,2,3,0,111,2,0,0
5206,1,1,1,591,1,415,52,1,2,3,0,111,2,0,0
5206,1,1,1,589,1,428,55,1,2,3,0,111,2,0,0
5206,1,1,1,310,1,385,57,1,2,3,0,111,2,0,0
5206,1,2,3,540,1,476,59,1,2,3,0,111,2,0,0
5206,1,2,4,521,0,315,62,2,2,3,0,100,2,0,0
5206,1,1,2,392,1,511,63,1,2,3,0,100,2,0,0
5206,1,2,3,406,1,638,67,1,2,3,0,111,2,0,0
5206,1,2,4,585,0,305,68,2,2,3,0,111,2,0,0
5206,1,2,3,421,1,454,69,1,2,3,0,100,2,0,0
5206,1,1,2,416,1,419,70,1,2,3,0,111,2,0,0
5206,1,1,2,530,1,426,73,1,2,3,0,100,2,0,0
5206,1,2,4,327,1,649,78,1,2,3,0,111,2,0,0
5206,1,2,4,536,1,663,79,1,2,3,0,111,2,0,0
5206,1,1,1,446,1,505,80,1,2,3,0,111,2,0,0
5206,1,1,1,344,1,399,82,1,2,4,0,111,2,0,0
5206,1,1,2,389,1,405,86,1,2,4,0,111,2,0,0
5206,1,1,1,570,1,620,88,1,2,4,0,111,2,0,0
5206,1,2,4,344,1,527,90,1,2,4,0,111,2,0,0
5206,1,2,4,396,1,463,91,1,2,4,0,111,2,0,0
5206,1,2,3,489,1,483,92,1,2,4,0,111,2,0,0
5206,1,1,2,377,1,440,93,1,2,4,0,111,2,0,0
5206,1,1,1,442,1,498,95,1,2,4,0,100,2,0,0
5206,1,1,1,558,1,407,100,1,2,4,0,100,2,0,0
5206,1,2,4,372,1,467,104,1,2,4,0,111,2,0,0
5206,1,1,2,472,1,429,105,1,2,4,0,111,2,0,0
5206,1,2,3,381,1,448,108,1,2,4,0,111,2,0,0
5206,1,2,4,529,1,473,109,1,2,4,0,111,2,0,0
5206,1,1,2,424,0,475,110,2,2,4,0,111,2,0,0
5206,1,2,3,468,1,572,112,1,2,4,0,111,2,0,0
5206,1,1,2,564,0,268,114,2,3,5,0,111,2,0,0
5206,1,1,2,495,1,385,116,1,3,5,0,111,2,0,0
5206,1,1,2,500,1,903,119,1,3,5,0,111,2,0,0
5206,1,2,4,596,1,474,121,1,3,5,0,111,2,0,0
5206,1,1,1,543,1,289,122,1,3,5,0,111,2,0,0
5206,1,1,1,552,1,625,125,1,3,5,0,100,2,0,0
5206,1,2,3,535,0,263,128,2,3,5,0,100,2,0,0
5206,1,2,4,586,1,286,131,1,3,5,0,111,2,0,0
5206,1,1,2,341,1,409,132,1,3,5,0,111,2,0,0
5206,1,1,1,518,1,372,135,1,3,5,0,100,2,0,0
5206,1,2,4,558,1,955,137,1,3,5,0,111,2,0,0
5206,1,2,3,461,0,338,138,2,3,5,0,111,2,0,0
5206,1,1,2,554,0,221,139,2,3,5,0,100,2,0,0
5206,1,1,2,377,1,504,148,1,4,6,0,100,2,0,0
5206,1,2,4,545,1,546,151,1,4,6,0,111,2,0,0
5206,1,1,1,582,1,468,152,1,4,6,0,111,2,0,0
5206,1,1,2,554,1,517,157,1,4,6,0,100,2,0,0
5206,1,2,4,455,1,388,159,1,4,6,0,111,2,0,0
5206,1,2,3,344,1,727,160,1,4,6,0,111,2,0,0
5206,1,2,4,599,0,291,161,2,4,6,0,111,2,0,0
5206,1,1,2,473,1,456,162,1,4,6,0,100,2,0,0
5206,1,2,4,435,1,589,164,1,4,6,0,100,2,0,0
5206,1,1,1,466,0,305,165,2,4,6,0,111,2,0,0
5206,1,1,1,575,1,556,167,1,4,6,0,111,2,0,0
5206,1,1,1,486,1,349,169,1,4,6,0,111,2,0,0
5206,1,1,1,361,1,436,171,1,4,6,0,111,2,0,0
5206,1,2,4,340,1,520,175,1,4,6,0,100,2,0,0
5206,1,1,2,591,1,652,176,1,4,6,0,111,2,0,0
5206,1,2,4,421,0,364,178,2,2,7,0,111,2,0,0
5206,1,1,2,319,1,533,179,1,2,7,0,100,2,0,0
5206,1,2,3,410,1,517,181,1,2,7,0,111,2,0,0
5206,1,2,4,385,1,531,182,1,2,7,0,111,2,0,0
5206,1,2,4,323,1,545,183,1,2,7,0,111,2,0,0
5206,1,1,1,487,1,442,184,1,2,7,0,111,2,0,0
5206,1,1,1,301,1,423,187,1,2,7,0,111,2,0,0
5206,1,1,2,428,1,438,192,1,2,7,0,100,2,0,0
5206,1,1,1,363,1,389,196,1,2,7,0,111,2,0,0
5206,1,1,2,578,1,527,198,1,2,7,0,111,2,0,0
5206,1,2,4,477,1,371,201,1,2,7,0,111,2,0,0
5206,1,2,3,339,0,348,202,2,2,7,0,111,2,0,0
5206,1,2,3,540,1,606,203,1,2,7,0,100,2,0,0
5206,1,1,1,338,1,427,204,1,2,7,0,111,2,0,0
5206,1,1,1,354,1,511,206,1,2,7,0,111,2,0,0
5206,1,1,1,346,1,384,211,1,2,8,0,111,2,0,0
5206,1,1,1,315,1,407,214,1,2,8,0,111,2,0,0
5206,1,2,3,423,0,317,216,2,2,8,0,111,2,0,0
5206,1,1,2,547,1,490,217,1,2,8,0,100,2,0,0
5206,1,2,4,335,1,472,219,1,2,8,0,100,2,0,0
5206,1,1,2,436,1,427,220,1,2,8,0,111,2,0,0
5206,1,1,1,593,1,430,222,1,2,8,0,111,2,0,0
5206,1,2,4,507,0,282,225,2,2,8,0,111,2,0,0
5206,1,2,3,527,0,354,226,2,2,8,0,100,2,0,0
5206,1,2,3,563,1,468,227,1,2,8,0,100,2,0,0
5206,1,1,2,461,0,288,228,2,2,8,0,111,2,0,0
5206,1,2,4,467,1,307,232,1,2,8,0,100,2,0,0
5206,1,2,3,508,0,294,233,2,2,8,0,111,2,0,0
5206,1,1,2,408,1,545,234,1,2,8,0,100,2,0,0
5206,1,1,1,329,1,257,237,1,2,8,0,100,2,0,0
5206,1,1,1,465,1,565,240,1,2,8,0,111,2,0,0
5206,1,2,4,335,1,543,243,1,2,9,0,111,2,0,0
5206,1,2,3,397,1,571,244,1,2,9,0,111,2,0,0
5206,1,1,2,478,1,392,245,1,2,9,0,111,2,0,0
5206,1,1,2,457,1,329,247,1,2,9,0,100,2,0,0
5206,1,2,3,302,1,557,251,1,2,9,0,111,2,0,0
5206,1,1,1,484,1,438,252,1,2,9,0,111,2,0,0
5206,1,2,3,313,1,566,255,1,2,9,0,111,2,0,0
5206,1,1,1,398,1,420,256,1,2,9,0,111,2,0,0
5206,1,2,4,387,1,544,258,1,2,9,0,100,2,0,0
5206,1,2,3,399,1,621,259,1,2,9,0,111,2,0,0
5206,1,1,2,422,1,403,260,1,2,9,0,111,2,0,0
5206,1,2,3,425,0,495,266,2,2,9,0,111,2,0,0
5206,1,2,4,359,1,676,267,1,2,9,0,100,2,0,0
5206,1,1,1,534,1,250,268,1,2,9,0,111,2,0,0
5206,1,2,3,513,1,253,270,1,2,9,0,111,2,0,0
5206,1,1,2,397,1,298,271,1,2,9,0,111,2,0,0
5206,1,2,3,457,1,255,278,1,2,10,0,111,2,0,0
5206,1,1,1,595,1,307,279,1,2,10,0,111,2,0,0
5206,1,2,3,302,1,870,281,1,2,10,0,100,2,0,0
5206,1,1,2,566,1,445,282,1,2,10,0,111,2,0,0
5206,1,1,2,450,1,419,285,1,2,10,0,111,2,0,0
5206,1,2,3,399,1,604,288,1,2,10,0,111,2,0,0
5206,1,1,2,461,1,438,289,1,2,10,0,111,2,0,0
5206,1,2,3,466,0,321,291,2,2,10,0,111,2,0,0
5206,1,1,1,358,1,589,292,1,2,10,0,100,2,0,0
5206,1,1,1,332,1,430,295,1,2,10,0,100,2,0,0
5206,1,2,4,371,1,476,298,1,2,10,0,100,2,0,0
5206,1,1,2,425,1,389,299,1,2,10,0,111,2,0,0
5206,1,2,4,539,1,358,301,1,2,10,0,100,2,0,0
5206,1,1,2,309,1,406,302,1,2,10,0,111,2,0,0
5206,1,1,1,549,1,364,306,1,2,11,0,111,2,0,0
5206,1,1,2,340,1,427,310,1,2,11,0,111,2,0,0
5206,1,1,1,557,0,311,312,2,2,11,0,111,2,0,0
5206,1,2,3,426,0,303,314,2,2,11,0,111,2,0,0
5206,1,1,1,509,1,478,315,1,2,11,0,100,2,0,0
5206,1,1,2,349,1,463,317,1,2,11,0,111,2,0,0
5206,1,2,4,480,1,370,319,1,2,11,0,111,2,0,0
5206,1,1,1,328,1,534,320,1,2,11,0,111,2,0,0
5206,1,2,4,444,1,410,323,1,2,11,0,111,2,0,0
5206,1,1,1,548,1,441,324,1,2,11,0,111,2,0,0
5206,1,2,3,339,1,587,326,1,2,11,0,100,2,0,0
5206,1,2,3,488,1,771,327,1,2,11,0,111,2,0,0
5206,1,2,4,416,1,538,328,1,2,11,0,111,2,0,0
5206,1,1,2,378,1,514,329,1,2,11,0,111,2,0,0
5206,1,1,1,404,1,488,331,1,2,11,0,111,2,0,0
5206,1,1,2,509,1,472,334,1,2,11,0,111,2,0,0
5206,1,2,4,492,1,370,340,1,2,12,0,111,2,0,0
5206,1,2,3,513,0,290,341,2,2,12,0,111,2,0,0
5206,1,2,4,553,1,550,342,1,2,12,0,100,2,0,0
5206,1,1,2,458,1,323,343,1,2,12,0,111,2,0,0
5206,1,2,3,417,1,419,346,1,2,12,0,111,2,0,0
5206,1,1,1,546,1,231,347,1,2,12,0,111,2,0,0
5206,1,1,2,414,0,284,349,2,2,12,0,111,2,0,0
5206,1,1,2,558,1,198,351,1,2,12,0,100,2,0,0
5206,1,1,1,394,1,381,357,1,2,12,0,111,2,0,0
5206,1,2,3,472,1,627,359,1,2,12,0,111,2,0,0
5206,1,1,1,443,1,452,360,1,2,12,0,111,2,0,0
5206,1,2,4,595,1,519,362,1,2,12,0,111,2,0,0
5206,1,2,4,363,1,588,363,1,2,12,0,111,2,0,0
5206,1,2,3,465,1,608,364,1,2,12,0,111,2,0,0
5206,1,1,2,309,1,682,365,1,2,12,0,111,2,0,0
5206,1,1,2,569,0,290,368,2,2,12,0,100,2,0,0
5207,1,1,1,529,0,655,18,2,1,2,0,111,2,0,0
5207,1,1,2,499,1,627,20,1,1,2,0,111,2,0,0
5207,1,2,3,319,1,613,23,1,1,2,0,111,2,0,0
5207,1,1,2,540,1,538,24,1,1,2,0,111,2,0,0
5207,1,2,3,376,1,558,27,1,1,2,0,111,2,0,0
5207,1,1,1,550,1,537,28,1,1,2,0,111,2,0,0
5207,1,1,1,486,1,539,31,1,1,2,0,111,2,0,0
5207,1,1,1,476,1,533,33,1,1,2,0,111,2,0,0
5207,1,2,3,403,1,514,35,1,1,2,0,111,2,0,0
5207,1,2,4,393,1,573,36,1,1,2,0,111,2,0,0
5207,1,2,4,488,1,640,37,1,1,2,0,111,2,0,0
5207,1,2,4,389,1,583,38,1,1,2,0,111,2,0,0
5207,1,2,4,510,1,805,39,1,1,2,0,111,2,0,0
5207,1,1,1,545,1,697,40,1,1,2,0,111,2,0,0
5207,1,1,1,407,1,493,42,1,1,2,0,111,2,0,0
5207,1,1,2,589,1,560,47,1,1,2,0,111,2,0,0
5207,1,2,3,471,1,556,50,1,3,3,0,111,2,0,0
5207,1,2,3,489,1,590,51,1,3,3,0,111,2,0,0
5207,1,1,1,381,1,561,52,1,3,3,0,111,2,0,0
5207,1,2,3,505,1,485,57,1,3,3,0,111,2,0,0
5207,1,1,1,520,1,535,58,1,3,3,0,111,2,0,0
5207,1,2,3,376,1,526,61,1,3,3,0,111,2,0,0
5207,1,1,2,334,1,547,62,1,3,3,0,111,2,0,0
5207,1,2,4,393,1,645,65,1,3,3,0,111,2,0,0
5207,1,1,2,508,1,620,66,1,3,3,0,111,2,0,0
5207,1,1,2,561,1,538,68,1,3,3,0,111,2,0,0
5207,1,1,1,362,1,562,75,1,3,3,0,111,2,0,0
5207,1,2,4,566,1,1384,77,1,3,3,0,111,2,0,0
5207,1,1,1,396,1,571,78,1,3,3,0,111,2,0,0
5207,1,1,1,341,1,592,80,1,3,3,0,111,2,0,0
5207,1,2,3,336,1,479,84,1,3,4,0,111,2,0,0
5207,1,1,2,510,1,503,85,1,3,4,0,111,2,0,0
5207,1,1,1,367,1,567,87,1,3,4,0,111,2,0,0
5207,1,2,4,432,1,602,90,1,3,4,0,111,2,0,0
5207,1,1,1,464,1,711,91,1,3,4,0,111,2,0,0
5207,1,2,4,402,1,548,93,1,3,4,0,111,2,0,0
5207,1,2,4,484,1,575,94,1,3,4,0,111,2,0,0
5207,1,1,2,467,1,570,95,1,3,4,0,111,2,0,0
5207,1,2,4,544,1,530,101,1,3,4,0,111,2,0,0
5207,1,2,4,392,1,659,102,1,3,4,0,111,2,0,0
5207,1,1,2,312,1,600,103,1,3,4,0,111,2,0,0
5207,1,2,3,522,1,565,106,1,3,4,0,111,2,0,0
5207,1,2,4,441,1,670,107,1,3,4,0,111,2,0,0
5207,1,1,1,371,1,1052,110,1,3,4,0,111,2,0,0
5207,1,1,1,344,1,537,114,1,3,5,0,111,2,0,0
5207,1,1,2,434,1,832,117,1,3,5,0,111,2,0,0
5207,1,1,1,374,1,572,119,1,3,5,0,111,2,0,0
5207,1,2,3,479,1,492,121,1,3,5,0,111,2,0,0
5207,1,2,4,334,1,616,122,1,3,5,0,111,2,0,0
5207,1,1,1,584,1,1004,123,1,3,5,0,111,2,0,0
5207,1,1,2,425,0,587,126,2,3,5,0,111,2,0,0
5207,1,1,1,480,1,1400,128,1,3,5,0,111,2,0,0
5207,1,1,1,465,1,801,130,1,3,5,0,111,2,0,0
5207,1,2,3,322,1,656,133,1,3,5,0,111,2,0,0
5207,1,2,4,346,1,692,134,1,3,5,0,111,2,0,0
5207,1,1,1,420,1,571,135,1,3,5,0,111,2,0,0
5207,1,1,2,357,0,1078,137,2,3,5,0,111,2,0,0
5207,1,2,3,492,1,502,140,1,3,5,0,111,2,0,0
5207,1,1,2,415,1,691,141,1,3,5,0,111,2,0,0
5207,1,2,3,549,1,635,147,1,2,6,0,111,2,0,0
5207,1,2,4,474,1,553,148,1,2,6,0,111,2,0,0
5207,1,2,3,441,1,847,149,1,2,6,0,111,2,0,0
5207,1,1,2,477,1,514,150,1,2,6,0,111,2,0,0
5207,1,2,3,462,1,497,152,1,2,6,0,111,2,0,0
5207,1,1,2,563,1,572,153,1,2,6,0,111,2,0,0
5207,1,1,2,353,1,642,158,1,2,6,0,100,2,0,0
5207,1,2,3,425,1,549,161,1,2,6,0,111,2,0,0
5207,1,2,3,344,1,1275,162,1,2,6,0,111,2,0,0
5207,1,1,1,363,1,930,163,1,2,6,0,111,2,0,0
5207,1,1,1,552,1,1224,165,1,2,6,0,111,2,0,0
5207,1,1,2,310,0,572,170,2,2,6,0,111,2,0,0
5207,1,2,3,344,1,618,174,1,2,6,0,111,2,0,0
5207,1,2,4,308,1,1217,175,1,2,6,0,111,2,0,0
5207,1,2,4,483,1,693,176,1,2,6,0,111,2,0,0
5207,1,2,4,331,1,536,181,1,2,7,0,111,2,0,0
5207,1,2,4,442,1,716,182,1,2,7,0,111,2,0,0
5207,1,1,2,408,1,720,183,1,2,7,0,111,2,0,0
5207,1,1,2,381,1,532,187,1,2,7,0,111,2,0,0
5207,1,2,3,449,1,502,189,1,2,7,0,111,2,0,0
5207,1,2,4,591,1,457,190,1,2,7,0,111,2,0,0
5207,1,1,1,397,1,485,191,1,2,7,0,111,2,0,0
5207,1,2,3,317,1,541,193,1,2,7,0,111,2,0,0
5207,1,1,2,537,1,444,194,1,2,7,0,111,2,0,0
5207,1,2,4,320,1,572,198,1,2,7,0,111,2,0,0
5207,1,1,2,317,1,591,199,1,2,7,0,111,2,0,0
5207,1,2,3,495,1,510,201,1,2,7,0,111,2,0,0
5207,1,1,2,361,1,582,202,1,2,7,0,111,2,0,0
5207,1,2,4,334,1,556,204,1,2,7,0,111,2,0,0
5207,1,1,1,526,1,566,205,1,2,7,0,111,2,0,0
5207,1,1,1,447,1,580,208,1,2,7,0,111,2,0,0
5207,1,1,2,476,0,358,212,2,3,8,0,111,2,0,0
5207,1,1,2,310,1,477,215,1,3,8,0,111,2,0,0
5207,1,2,3,492,1,442,217,1,3,8,0,111,2,0,0
5207,1,2,3,486,1,417,218,1,3,8,0,111,2,0,0
5207,1,2,4,411,1,590,219,1,3,8,0,111,2,0,0
5207,1,2,4,387,1,516,220,1,3,8,0,111,2,0,0
5207,1,1,1,549,1,422,221,1,3,8,0,111,2,0,0
5207,1,1,1,321,1,530,224,1,3,8,0,111,2,0,0
5207,1,1,2,376,1,525,226,1,3,8,0,111,2,0,0
5207,1,2,3,310,1,575,228,1,3,8,0,111,2,0,0
5207,1,1,1,501,1,548,229,1,3,8,0,111,2,0,0
5207,1,2,4,318,1,489,232,1,3,8,0,111,2,0,0
5207,1,1,1,482,1,500,233,1,3,8,0,111,2,0,0
5207,1,2,4,510,0,551,239,2,3,8,0,100,2,0,0
5207,1,2,3,478,1,653,240,1,3,8,0,100,2,0,0
5207,1,1,1,558,1,500,242,1,2,9,0,111,2,0,0
5207,1,1,2,551,1,461,244,1,2,9,0,111,2,0,0
5207,1,2,3,495,1,514,246,1,2,9,0,111,2,0,0
5207,1,1,1,497,1,480,247,1,2,9,0,111,2,0,0
5207,1,2,3,372,1,584,251,1,2,9,0,111,2,0,0
5207,1,1,2,592,1,539,252,1,2,9,0,111,2,0,0
5207,1,2,3,356,1,491,256,1,2,9,0,111,2,0,0
5207,1,1,1,432,1,484,257,1,2,9,0,111,2,0,0
5207,1,1,2,466,1,473,259,1,2,9,0,100,2,0,0
5207,1,1,1,383,1,756,263,1,2,9,0,111,2,0,0
5207,1,2,3,429,1,484,266,1,2,9,0,111,2,0,0
5207,1,2,3,454,1,558,267,1,2,9,0,111,2,0,0
5207,1,2,4,458,1,636,268,1,2,9,0,111,2,0,0
5207,1,1,2,540,0,1240,269,2,2,9,0,111,2,0,0
5207,1,1,2,477,1,347,271,1,2,9,0,111,2,0,0
5207,1,1,1,385,1,482,274,1,3,10,0,111,2,0,0
5207,1,2,4,576,1,427,276,1,3,10,0,111,2,0,0
5207,1,2,3,356,1,602,277,1,3,10,0,111,2,0,0
5207,1,1,1,537,1,447,278,1,3,10,0,111,2,0,0
5207,1,1,2,348,1,658,283,1,3,10,0,111,2,0,0
5207,1,2,4,319,1,538,286,1,3,10,0,111,2,0,0
5207,1,1,2,598,0,538,287,2,3,10,0,111,2,0,0
5207,1,2,4,463,0,559,290,2,3,10,0,111,2,0,0
5207,1,1,2,507,1,636,295,1,3,10,0,111,2,0,0
5207,1,2,4,310,1,634,300,1,3,10,0,111,2,0,0
5207,1,2,3,489,1,830,301,1,3,10,0,111,2,0,0
5207,1,1,1,571,1,554,302,1,3,10,0,111,2,0,0
5207,1,2,4,597,1,519,304,1,3,10,0,111,2,0,0
5207,1,1,1,320,1,488,306,1,2,11,0,111,2,0,0
5207,1,1,1,356,1,517,308,1,2,11,0,111,2,0,0
5207,1,1,1,320,1,508,310,1,2,11,0,111,2,0,0
5207,1,2,4,467,1,571,313,1,2,11,0,111,2,0,0
5207,1,2,3,461,1,483,314,1,2,11,0,111,2,0,0
5207,1,1,2,551,1,629,315,1,2,11,0,111,2,0,0
5207,1,1,1,456,1,572,318,1,2,11,0,111,2,0,0
5207,1,1,2,344,1,578,320,1,2,11,0,111,2,0,0
5207,1,1,1,390,1,522,323,1,2,11,0,111,2,0,0
5207,1,2,4,339,1,606,326,1,2,11,0,111,2,0,0
5207,1,1,2,548,0,1499,327,2,2,11,0,111,2,0,0
5207,1,1,2,537,1,489,329,1,2,11,0,111,2,0,0
5207,1,1,1,404,1,504,331,1,2,11,0,100,2,0,0
5207,1,2,4,559,1,858,333,1,2,11,0,111,2,0,0
5207,1,1,1,370,1,522,334,1,2,11,0,111,2,0,0
5207,1,2,3,437,1,828,339,1,3,12,0,111,2,0,0
5207,1,2,4,413,1,519,340,1,3,12,0,111,2,0,0
5207,1,1,2,554,1,530,341,1,3,12,0,111,2,0,0
5207,1,2,3,323,1,490,343,1,3,12,0,111,2,0,0
5207,1,1,2,317,1,523,344,1,3,12,0,111,2,0,0
5207,1,1,1,316,1,598,346,1,3,12,0,111,2,0,0
5207,1,1,1,415,1,444,348,1,3,12,0,111,2,0,0
5207,1,1,1,455,1,590,351,1,3,12,0,111,2,0,0
5207,1,2,4,501,1,407,356,1,3,12,0,111,2,0,0
5207,1,1,1,431,1,451,357,1,3,12,0,111,2,0,0
5207,1,1,2,432,1,549,360,1,3,12,0,111,2,0,0
5207,1,1,2,568,1,385,362,1,3,12,0,111,2,0,0
5207,1,2,4,532,1,399,364,1,3,12,0,111,2,0,0
5207,1,1,1,466,1,471,365,1,3,12,0,111,2,0,0
5207,1,2,4,421,1,634,367,1,3,12,0,111,2,0,0
5207,1,1,1,434,1,596,368,1,3,12,0,111,2,0,0
5208,1,2,4,349,1,626,20,1,1,2,0,111,2,0,0
5208,1,2,3,430,1,630,21,1,1,2,0,111,2,0,0
5208,1,1,1,329,1,538,22,1,1,2,0,111,2,0,0
5208,1,1,1,347,1,507,26,1,1,2,0,111,2,0,0
5208,1,2,3,438,1,545,28,1,1,2,0,100,2,0,0
5208,1,1,2,343,1,539,29,1,1,2,0,111,2,0,0
5208,1,2,3,544,1,577,32,1,1,2,0,111,2,0,0
5208,1,1,2,308,1,544,33,1,1,2,0,111,2,0,0
5208,1,1,1,418,1,602,35,1,1,2,0,111,2,0,0
5208,1,1,1,536,1,529,39,1,1,2,0,111,2,0,0
5208,1,2,4,332,1,975,43,1,1,2,0,111,2,0,0
5208,1,2,4,569,1,1427,44,1,1,2,0,111,2,0,0
5208,1,2,3,480,1,569,45,1,1,2,0,111,2,0,0
5208,1,2,3,420,1,881,46,1,1,2,0,111,2,0,0
5208,1,1,2,399,1,834,47,1,1,2,0,111,2,0,0
5208,1,2,3,336,0,356,51,2,3,3,0,111,2,0,0
5208,1,1,1,527,1,401,52,1,3,3,0,100,2,0,0
5208,1,2,4,537,1,616,56,1,3,3,0,111,2,0,0
5208,1,2,3,550,1,330,57,1,3,3,0,111,2,0,0
5208,1,2,4,353,0,556,58,2,3,3,0,111,2,0,0
5208,1,1,2,366,1,549,59,1,3,3,0,100,2,0,0
5208,1,2,4,576,1,604,64,1,3,3,0,111,2,0,0
5208,1,2,4,422,1,547,65,1,3,3,0,111,2,0,0
5208,1,2,4,444,1,539,66,1,3,3,0,111,2,0,0
5208,1,1,2,341,1,969,67,1,3,3,0,111,2,0,0
5208,1,1,1,369,0,382,69,2,3,3,0,111,2,0,0
5208,1,2,4,304,1,1183,71,1,3,3,0,100,2,0,0
5208,1,2,3,368,1,745,72,1,3,3,0,111,2,0,0
5208,1,1,1,345,0,1052,73,2,3,3,0,111,2,0,0
5208,1,1,1,553,1,1252,80,1,3,3,0,111,2,0,0
5208,1,2,4,529,1,639,82,1,2,4,0,111,2,0,0
5208,1,1,2,571,1,515,83,1,2,4,0,111,2,0,0
5208,1,2,3,346,1,708,85,1,2,4,0,111,2,0,0
5208,1,1,1,498,1,770,86,1,2,4,0,111,2,0,0
5208,1,1,1,303,1,879,90,1,2,4,0,100,2,0,0
5208,1,2,3,359,1,699,94,1,2,4,0,111,2,0,0
5208,1,1,2,375,1,499,98,1,2,4,0,111,2,0,0
5208,1,1,1,391,1,737,100,1,2,4,0,111,2,0,0
5208,1,1,1,578,1,454,102,1,2,4,0,111,2,0,0
5208,1,2,3,591,1,553,104,1,2,4,0,111,2,0,0
5208,1,2,3,490,1,706,105,1,2,4,0,111,2,0,0
5208,1,2,3,484,1,1086,106,1,2,4,0,111,2,0,0
5208,1,1,2,542,1,544,107,1,2,4,0,111,2,0,0
5208,1,1,1,437,1,659,111,1,2,4,0,100,2,0,0
5208,1,2,4,535,1,573,114,1,2,5,0,111,2,0,0
5208,1,2,3,318,1,748,115,1,2,5,0,111,2,0,0
5208,1,2,4,439,1,650,116,1,2,5,0,111,2,0,0
5208,1,1,1,320,1,422,117,1,2,5,0,111,2,0,0
5208,1,2,4,328,1,1030,120,1,2,5,0,100,2,0,0
5208,1,1,1,562,1,606,121,1,2,5,0,111,2,0,0
5208,1,2,4,345,1,746,126,1,2,5,0,111,2,0,0
5208,1,2,3,376,0,1148,130,2,2,5,0,100,2,0,0
5208,1,2,4,557,0,1260,131,2,2,5,0,100,2,0,0
5208,1,1,2,352,1,1199,132,1,2,5,0,100,2,0,0
5208,1,1,1,391,1,773,134,1,2,5,0,111,2,0,0
5208,1,1,2,483,1,718,139,1,2,5,0,111,2,0,0
5208,1,1,2,397,1,512,141,1,2,5,0,111,2,0,0
5208,1,1,1,323,1,413,146,1,2,6,0,111,2,0,0
5208,1,2,4,306,1,720,148,1,2,6,0,111,2,0,0
5208,1,1,1,513,1,739,149,1,2,6,0,111,2,0,0
5208,1,1,2,334,1,911,156,1,2,6,0,100,2,0,0
5208,1,2,4,467,0,1304,158,2,2,6,0,111,2,0,0
5208,1,2,4,595,1,919,167,1,2,6,0,111,2,0,0
5208,1,1,1,458,1,568,168,1,2,6,0,111,2,0,0
5208,1,1,2,343,1,1204,175,1,2,6,0,111,2,0,0
5208,1,1,1,442,1,498,179,1,2,7,0,111,2,0,0
5208,1,2,3,417,1,631,181,1,2,7,0,111,2,0,0
5208,1,1,1,373,1,570,182,1,2,7,0,111,2,0,0
5208,1,1,1,459,1,454,185,1,2,7,0,111,2,0,0
5208,1,2,4,358,1,590,187,1,2,7,0,111,2,0,0
5208,1,1,2,586,1,411,188,1,2,7,0,111,2,0,0
5208,1,1,1,357,1,622,190,1,2,7,0,111,2,0,0
5208,1,2,4,586,1,533,193,1,2,7,0,111,2,0,0
5208,1,1,2,429,1,731,194,1,2,7,0,111,2,0,0
5208,1,1,2,328,1,509,196,1,2,7,0,111,2,0,0
5208,1,2,4,587,0,992,202,2,2,7,0,100,2,0,0
5208,1,1,1,447,1,736,205,1,2,7,0,111,2,0,0
5208,1,1,2,435,1,631,207,1,2,7,0,111,2,0,0
5208,1,2,4,363,1,571,210,1,3,8,0,111,2,0,0
5208,1,2,4,477,0,428,211,2,3,8,0,111,2,0,0
5208,1,1,2,504,1,759,212,1,3,8,0,100,2,0,0
5208,1,2,3,537,1,552,218,1,3,8,0,111,2,0,0
5208,1,2,3,566,1,570,219,1,3,8,0,111,2,0,0
5208,1,1,2,581,1,397,220,1,3,8,0,111,2,0,0
5208,1,1,1,518,1,382,223,1,3,8,0,111,2,0,0
5208,1,2,4,307,0,672,226,2,3,8,0,100,2,0,0
5208,1,2,4,473,1,1270,227,1,3,8,0,100,2,0,0
5208,1,1,2,303,1,704,228,1,3,8,0,111,2,0,0
5208,1,1,1,465,1,569,230,1,3,8,0,111,2,0,0
5208,1,2,3,585,1,548,233,1,3,8,0,111,2,0,0
5208,1,1,1,413,1,873,234,1,3,8,0,111,2,0,0
5208,1,1,2,536,1,684,236,1,3,8,0,111,2,0,0
5208,1,1,2,579,1,418,239,1,3,8,0,111,2,0,0
5208,1,1,1,508,1,411,242,1,2,9,0,111,2,0,0
5208,1,2,4,462,1,511,244,1,2,9,0,111,2,0,0
5208,1,2,4,306,1,561,245,1,2,9,0,111,2,0,0
5208,1,1,1,531,1,484,246,1,2,9,0,111,2,0,0
5208,1,2,4,486,1,561,250,1,2,9,0,111,2,0,0
5208,1,1,2,549,1,437,251,1,2,9,0,111,2,0,0
5208,1,1,2,537,1,1142,254,1,2,9,0,100,2,0,0
5208,1,1,2,371,1,439,256,1,2,9,0,111,2,0,0
5208,1,2,4,308,0,473,259,2,2,9,0,111,2,0,0
5208,1,1,2,379,1,580,260,1,2,9,0,100,2,0,0
5208,1,2,4,476,1,1008,262,1,2,9,0,100,2,0,0
5208,1,1,2,436,1,719,263,1,2,9,0,111,2,0,0
5208,1,2,3,358,0,450,267,2,2,9,0,111,2,0,0
5208,1,1,2,351,1,517,271,1,2,9,0,111,2,0,0
5208,1,2,3,499,1,566,278,1,2,10,0,111,2,0,0
5208,1,1,2,334,1,604,279,1,2,10,0,111,2,0,0
5208,1,2,4,403,1,804,281,1,2,10,0,111,2,0,0
5208,1,2,3,585,1,655,282,1,2,10,0,111,2,0,0
5208,1,2,4,301,1,646,283,1,2,10,0,111,2,0,0
5208,1,1,2,410,1,759,284,1,2,10,0,111,2,0,0
5208,1,1,2,351,1,720,286,1,2,10,0,111,2,0,0
5208,1,1,2,568,1,773,289,1,2,10,0,100,2,0,0
5208,1,2,3,412,1,991,292,1,2,10,0,111,2,0,0
5208,1,1,1,370,1,858,293,1,2,10,0,111,2,0,0
5208,1,1,1,475,1,633,298,1,2,10,0,111,2,0,0
5208,1,1,2,442,1,530,301,1,2,10,0,111,2,0,0
5208,1,1,2,403,1,469,306,1,2,11,0,111,2,0,0
5208,1,1,1,392,1,548,309,1,2,11,0,111,2,0,0
5208,1,2,3,452,1,486,312,1,2,11,0,111,2,0,0
5208,1,1,1,335,1,530,313,1,2,11,0,111,2,0,0
5208,1,2,4,524,0,926,317,2,2,11,0,100,2,0,0
5208,1,1,2,425,1,728,318,1,2,11,0,100,2,0,0
5208,1,2,4,519,1,476,320,1,2,11,0,111,2,0,0
5208,1,1,1,575,1,621,321,1,2,11,0,111,2,0,0
5208,1,1,2,354,1,599,323,1,2,11,0,111,2,0,0
5208,1,2,3,474,1,727,327,1,2,11,0,100,2,0,0
5208,1,1,1,313,1,720,328,1,2,11,0,111,2,0,0
5208,1,1,1,480,1,511,331,1,2,11,0,111,2,0,0
5208,1,2,3,451,1,655,333,1,2,11,0,111,2,0,0
5208,1,1,1,366,1,597,334,1,2,11,0,111,2,0,0
5208,1,2,4,596,1,648,336,1,2,11,0,111,2,0,0
5208,1,2,4,431,1,512,338,1,2,12,0,111,2,0,0
5208,1,2,3,355,1,583,339,1,2,12,0,111,2,0,0
5208,1,2,3,593,1,544,340,1,2,12,0,111,2,0,0
5208,1,1,2,600,1,478,341,1,2,12,0,111,2,0,0
5208,1,1,2,383,1,452,344,1,2,12,0,111,2,0,0
5208,1,2,3,538,1,658,348,1,2,12,0,100,2,0,0
5208,1,1,2,475,1,592,349,1,2,12,0,111,2,0,0
5208,1,2,3,322,1,562,353,1,2,12,0,111,2,0,0
5208,1,1,2,333,1,611,354,1,2,12,0,111,2,0,0
5208,1,2,4,510,1,531,356,1,2,12,0,111,2,0,0
5208,1,2,4,433,1,690,357,1,2,12,0,111,2,0,0
5208,1,2,4,584,1,1053,358,1,2,12,0,111,2,0,0
5208,1,1,1,342,1,558,359,1,2,12,0,111,2,0,0
5208,1,1,1,533,0,594,363,2,2,12,0,111,2,0,0
5208,1,2,4,370,1,1249,368,1,2,12,0,100,2,0,0
5212,1,1,1,458,1,573,19,1,1,2,0,111,2,0,0
5212,1,1,2,547,1,1460,21,1,1,2,0,111,2,0,0
5212,1,2,4,363,1,841,24,1,1,2,0,111,2,0,0
5212,1,2,4,306,1,788,25,1,1,2,0,111,2,0,0
5212,1,1,2,482,1,578,26,1,1,2,0,111,2,0,0
5212,1,1,2,511,1,554,29,1,1,2,0,111,2,0,0
5212,1,1,2,590,1,485,31,1,1,2,0,111,2,0,0
5212,1,1,1,336,1,508,33,1,1,2,0,111,2,0,0
5212,1,2,4,300,1,709,37,1,1,2,0,111,2,0,0
5212,1,1,1,599,1,506,38,1,1,2,0,111,2,0,0
5212,1,2,3,404,1,578,40,1,1,2,0,111,2,0,0
5212,1,1,2,586,1,552,41,1,1,2,0,111,2,0,0
5212,1,2,3,524,1,756,45,1,1,2,0,111,2,0,0
5212,1,1,1,301,1,635,46,1,1,2,0,111,2,0,0
5212,1,2,4,309,1,619,48,1,1,2,0,111,2,0,0
5212,1,1,2,426,1,756,50,1,3,3,0,111,2,0,0
5212,1,1,1,391,1,628,53,1,3,3,0,111,2,0,0
5212,1,2,4,581,1,1155,59,1,3,3,0,111,2,0,0
5212,1,2,4,376,1,783,60,1,3,3,0,111,2,0,0
5212,1,1,1,513,1,545,61,1,3,3,0,111,2,0,0
5212,1,2,3,468,1,720,63,1,3,3,0,111,2,0,0
5212,1,2,3,461,1,661,64,1,3,3,0,111,2,0,0
5212,1,1,2,579,1,561,65,1,3,3,0,111,2,0,0
5212,1,1,2,469,1,534,67,1,3,3,0,111,2,0,0
5212,1,1,2,540,1,729,71,1,3,3,0,111,2,0,0
5212,1,2,4,325,1,755,73,1,3,3,0,111,2,0,0
5212,1,2,3,559,1,650,74,1,3,3,0,111,2,0,0
5212,1,2,4,552,1,673,75,1,3,3,0,111,2,0,0
5212,1,2,3,424,1,668,76,1,3,3,0,111,2,0,0
5212,1,1,2,327,1,641,77,1,3,3,0,111,2,0,0
5212,1,1,1,386,1,618,83,1,3,4,0,111,2,0,0
5212,1,1,1,544,1,424,85,1,3,4,0,111,2,0,0
5212,1,2,3,585,1,730,87,1,3,4,0,111,2,0,0
5212,1,1,1,409,1,582,88,1,3,4,0,111,2,0,0
5212,1,2,4,312,1,749,90,1,3,4,0,111,2,0,0
5212,1,1,2,463,1,604,91,1,3,4,0,111,2,0,0
5212,1,1,2,587,1,544,93,1,3,4,0,111,2,0,0
5212,1,1,2,538,1,365,97,1,3,4,0,111,2,0,0
5212,1,1,2,475,1,358,99,1,3,4,0,111,2,0,0
5212,1,2,3,378,1,678,101,1,3,4,0,111,2,0,0
5212,1,2,4,365,1,512,102,1,3,4,0,111,2,0,0
5212,1,2,4,361,1,889,103,1,3,4,0,111,2,0,0
5212,1,1,2,374,1,1161,104,1,3,4,0,111,2,0,0
5212,1,1,2,484,1,548,106,1,3,4,0,111,2,0,0
5212,1,1,1,556,1,566,109,1,3,4,0,111,2,0,0
5212,1,1,2,402,1,1269,115,1,3,5,0,111,2,0,0
5212,1,2,4,548,1,610,118,1,3,5,0,111,2,0,0
5212,1,1,1,344,1,430,119,1,3,5,0,111,2,0,0
5212,1,2,4,368,1,575,121,1,3,5,0,111,2,0,0
5212,1,2,4,492,1,652,122,1,3,5,0,111,2,0,0
5212,1,2,3,550,1,636,123,1,3,5,0,111,2,0,0
5212,1,1,1,576,1,654,124,1,3,5,0,111,2,0,0
5212,1,1,1,430,1,753,126,1,3,5,0,111,2,0,0
5212,1,2,4,585,1,611,131,1,3,5,0,111,2,0,0
5212,1,2,3,400,1,501,132,1,3,5,0,111,2,0,0
5212,1,1,1,428,1,519,136,1,3,5,0,111,2,0,0
5212,1,1,1,443,1,831,140,1,3,5,0,111,2,0,0
5212,1,2,3,339,1,1462,143,1,3,5,0,100,2,0,0
5212,1,1,2,567,1,539,144,1,3,5,0,111,2,0,0
5212,1,1,2,589,1,684,149,1,2,6,0,111,2,0,0
5212,1,2,3,366,1,543,153,1,2,6,0,111,2,0,0
5212,1,1,2,320,1,625,154,1,2,6,0,111,2,0,0
5212,1,1,2,598,1,388,156,1,2,6,0,111,2,0,0
5212,1,1,1,513,1,399,159,1,2,6,0,111,2,0,0
5212,1,1,1,600,1,361,161,1,2,6,0,111,2,0,0
5212,1,2,4,301,1,547,165,1,2,6,0,111,2,0,0
5212,1,1,1,361,1,435,166,1,2,6,0,111,2,0,0
5212,1,1,1,341,1,415,168,1,2,6,0,111,2,0,0
5212,1,2,3,451,1,634,173,1,2,6,0,111,2,0,0
5212,1,2,4,334,1,723,174,1,2,6,0,111,2,0,0
5212,1,2,3,501,1,485,175,1,2,6,0,111,2,0,0
5212,1,2,4,582,1,524,176,1,2,6,0,111,2,0,0
5212,1,1,1,564,1,516,178,1,3,7,0,111,2,0,0
5212,1,2,3,364,1,616,182,1,3,7,0,111,2,0,0
5212,1,1,2,390,1,520,183,1,3,7,0,111,2,0,0
5212,1,2,4,468,1,463,185,1,3,7,0,111,2,0,0
5212,1,2,4,351,1,693,186,1,3,7,0,111,2,0,0
5212,1,1,1,599,1,405,187,1,3,7,0,111,2,0,0
5212,1,2,3,465,1,453,189,1,3,7,0,111,2,0,0
5212,1,1,2,570,1,330,190,1,3,7,0,111,2,0,0
5212,1,2,4,503,1,576,195,1,3,7,0,111,2,0,0
5212,1,1,2,508,1,567,196,1,3,7,0,111,2,0,0
5212,1,1,2,408,1,341,199,1,3,7,0,111,2,0,0
5212,1,1,1,398,1,802,202,1,3,7,0,111,2,0,0
5212,1,1,1,361,1,676,205,1,3,7,0,111,2,0,0
5212,1,2,4,316,1,552,207,1,3,7,0,111,2,0,0
5212,1,2,3,393,1,519,208,1,3,7,0,111,2,0,0
5212,1,2,4,513,1,556,211,1,3,8,0,111,2,0,0
5212,1,2,4,396,1,574,212,1,3,8,0,111,2,0,0
5212,1,2,3,426,1,1064,213,1,3,8,0,111,2,0,0
5212,1,2,3,375,1,1100,214,1,3,8,0,111,2,0,0
5212,1,1,1,559,1,619,215,1,3,8,0,111,2,0,0
5212,1,2,4,350,1,487,220,1,3,8,0,111,2,0,0
5212,1,1,2,596,1,559,221,1,3,8,0,111,2,0,0
5212,1,1,2,537,1,334,223,1,3,8,0,111,2,0,0
5212,1,1,1,308,1,1256,226,1,3,8,0,111,2,0,0
5212,1,1,2,391,1,595,228,1,3,8,0,111,2,0,0
5212,1,1,1,328,1,530,230,1,3,8,0,111,2,0,0
5212,1,2,4,441,1,472,235,1,3,8,0,111,2,0,0
5212,1,2,4,442,1,598,236,1,3,8,0,111,2,0,0
5212,1,1,2,474,1,566,237,1,3,8,0,111,2,0,0
5212,1,2,3,563,1,514,240,1,3,8,0,111,2,0,0
5212,1,1,2,377,1,874,242,1,3,9,0,100,2,0,0
5212,1,1,1,313,1,504,244,1,3,9,0,111,2,0,0
5212,1,2,4,528,1,631,247,1,3,9,0,111,2,0,0
5212,1,2,4,512,1,661,248,1,3,9,0,111,2,0,0
5212,1,2,4,317,1,624,249,1,3,9,0,111,2,0,0
5212,1,2,3,547,1,710,250,1,3,9,0,111,2,0,0
5212,1,1,1,367,1,780,251,1,3,9,0,111,2,0,0
5212,1,1,2,475,1,1266,255,1,3,9,0,100,2,0,0
5212,1,2,4,436,1,1091,261,1,3,9,0,100,2,0,0
5212,1,2,3,584,1,500,262,1,3,9,0,111,2,0,0
5212,1,2,4,431,1,600,263,1,3,9,0,111,2,0,0
5212,1,2,4,354,0,419,264,2,3,9,0,111,2,0,0
5212,1,2,3,434,1,1430,265,1,3,9,0,100,2,0,0
5212,1,1,2,484,1,514,266,1,3,9,0,111,2,0,0
5212,1,2,3,319,1,475,274,1,2,10,0,111,2,0,0
5212,1,1,1,535,1,495,275,1,2,10,0,111,2,0,0
5212,1,2,4,590,1,537,277,1,2,10,0,111,2,0,0
5212,1,1,2,309,1,526,278,1,2,10,0,111,2,0,0
5212,1,1,2,469,1,365,281,1,2,10,0,111,2,0,0
5212,1,1,2,386,1,399,283,1,2,10,0,100,2,0,0
5212,1,1,2,302,1,526,287,1,2,10,0,111,2,0,0
5212,1,2,3,552,1,612,289,1,2,10,0,111,2,0,0
5212,1,2,4,559,1,482,290,1,2,10,0,111,2,0,0
5212,1,1,2,418,1,473,291,1,2,10,0,111,2,0,0
5212,1,2,3,573,1,602,294,1,2,10,0,111,2,0,0
5212,1,2,4,303,1,494,295,1,2,10,0,111,2,0,0
5212,1,1,2,568,1,555,296,1,2,10,0,111,2,0,0
5212,1,1,2,582,1,506,299,1,2,10,0,100,2,0,0
5212,1,1,1,521,1,356,302,1,2,10,0,111,2,0,0
5212,1,1,2,344,1,513,306,1,3,11,0,111,2,0,0
5212,1,1,2,497,1,511,310,1,3,11,0,111,2,0,0
5212,1,2,3,566,0,294,312,2,3,11,0,111,2,0,0
5212,1,1,2,516,1,408,313,1,3,11,0,100,2,0,0
5212,1,2,3,520,0,397,316,2,3,11,0,111,2,0,0
5212,1,2,4,387,1,736,317,1,3,11,0,100,2,0,0
5212,1,1,1,411,1,449,318,1,3,11,0,111,2,0,0
5212,1,1,2,474,1,442,321,1,3,11,0,111,2,0,0
5212,1,1,1,306,1,574,323,1,3,11,0,111,2,0,0
5212,1,2,4,514,1,685,325,1,3,11,0,111,2,0,0
5212,1,1,1,309,1,446,326,1,3,11,0,111,2,0,0
5212,1,2,3,522,1,601,329,1,3,11,0,111,2,0,0
5212,1,1,1,497,1,421,330,1,3,11,0,111,2,0,0
5212,1,2,4,314,1,740,332,1,3,11,0,111,2,0,0
5212,1,2,4,546,1,631,333,1,3,11,0,111,2,0,0
5212,1,1,1,511,1,430,334,1,3,11,0,111,2,0,0
5212,1,1,1,373,1,561,339,1,3,12,0,111,2,0,0
5212,1,1,1,517,1,355,341,1,3,12,0,111,2,0,0
5212,1,1,2,521,1,557,343,1,3,12,0,111,2,0,0
5212,1,2,3,494,1,1343,346,1,3,12,0,100,2,0,0
5212,1,1,2,394,1,415,347,1,3,12,0,111,2,0,0
5212,1,2,4,353,1,847,351,1,3,12,0,100,2,0,0
5212,1,2,4,539,0,290,352,2,3,12,0,111,2,0,0
5212,1,2,3,517,1,454,357,1,3,12,0,111,2,0,0
5212,1,2,3,442,1,354,358,1,3,12,0,111,2,0,0
5212,1,2,4,368,0,361,359,2,3,12,0,111,2,0,0
5212,1,1,2,585,1,707,365,1,3,12,0,100,2,0,0
5213,1,1,2,411,1,586,18,1,1,2,0,111,2,0,0
5213,1,1,1,381,1,674,21,1,1,2,0,111,2,0,0
5213,1,1,2,453,1,493,23,1,1,2,0,111,2,0,0
5213,1,2,4,379,1,509,26,1,1,2,0,111,2,0,0
5213,1,1,2,454,1,432,27,1,1,2,0,111,2,0,0
5213,1,2,4,563,1,599,29,1,1,2,0,111,2,0,0
5213,1,1,1,361,1,636,30,1,1,2,0,111,2,0,0
5213,1,1,1,422,1,635,33,1,1,2,0,111,2,0,0
5213,1,2,3,316,1,664,37,1,1,2,0,111,2,0,0
5213,1,1,1,530,1,643,38,1,1,2,0,111,2,0,0
5213,1,1,2,533,1,518,41,1,1,2,0,111,2,0,0
5213,1,2,3,551,1,634,45,1,1,2,0,111,2,0,0
5213,1,2,3,401,1,727,46,1,1,2,0,111,2,0,0
5213,1,1,2,579,1,490,47,1,1,2,0,111,2,0,0
5213,1,1,2,467,1,848,50,1,3,3,0,111,2,0,0
5213,1,2,3,451,1,525,52,1,3,3,0,111,2,0,0
5213,1,1,2,447,1,505,53,1,3,3,0,111,2,0,0
5213,1,1,2,523,1,485,56,1,3,3,0,100,2,0,0
5213,1,1,1,445,1,398,59,1,3,3,0,111,2,0,0
5213,1,2,3,312,1,814,62,1,3,3,0,100,2,0,0
5213,1,1,2,429,1,624,63,1,3,3,0,111,2,0,0
5213,1,1,1,465,1,467,65,1,3,3,0,111,2,0,0
5213,1,1,2,594,1,559,67,1,3,3,0,111,2,0,0
5213,1,2,3,373,1,935,69,1,3,3,0,111,2,0,0
5213,1,2,4,522,1,861,70,1,3,3,0,111,2,0,0
5213,1,1,2,382,1,602,71,1,3,3,0,111,2,0,0
5213,1,1,1,342,1,709,74,1,3,3,0,111,2,0,0
5213,1,1,1,328,1,601,78,1,3,3,0,111,2,0,0
5213,1,2,4,547,0,331,82,2,2,4,0,111,2,0,0
5213,1,2,3,477,1,459,83,1,2,4,0,100,2,0,0
5213,1,2,4,389,1,470,84,1,2,4,0,111,2,0,0
5213,1,1,2,310,1,557,85,1,2,4,0,111,2,0,0
5213,1,1,2,548,1,378,89,1,2,4,0,111,2,0,0
5213,1,1,2,456,1,726,94,1,2,4,0,111,2,0,0
5213,1,1,1,583,1,611,96,1,2,4,0,111,2,0,0
5213,1,1,1,510,1,559,99,1,2,4,0,111,2,0,0
5213,1,1,2,600,1,792,101,1,2,4,0,111,2,0,0
5213,1,1,1,591,1,411,104,1,2,4,0,100,2,0,0
5213,1,1,1,469,0,472,106,2,2,4,0,111,2,0,0
5213,1,2,4,328,1,1384,112,1,2,4,0,111,2,0,0
5213,1,2,4,526,1,444,114,1,2,5,0,111,2,0,0
5213,1,1,2,315,1,469,115,1,2,5,0,111,2,0,0
5213,1,1,1,432,1,542,119,1,2,5,0,111,2,0,0
5213,1,2,3,397,1,624,121,1,2,5,0,111,2,0,0
5213,1,2,3,506,0,397,122,2,2,5,0,111,2,0,0
5213,1,1,1,403,0,752,123,2,2,5,0,100,2,0,0
5213,1,2,4,394,1,542,128,1,2,5,0,111,2,0,0
5213,1,2,3,593,1,620,129,1,2,5,0,111,2,0,0
5213,1,1,1,336,1,709,130,1,2,5,0,111,2,0,0
5213,1,1,2,320,1,533,136,1,2,5,0,100,2,0,0
5213,1,1,1,536,0,403,138,2,2,5,0,100,2,0,0
5213,1,1,1,574,0,493,140,2,2,5,0,100,2,0,0
5213,1,1,2,500,1,561,147,1,4,6,0,111,2,0,0
5213,1,1,1,419,1,538,149,1,4,6,0,111,2,0,0
5213,1,1,2,369,1,577,152,1,4,6,0,111,2,0,0
5213,1,2,3,351,1,934,154,1,4,6,0,111,2,0,0
5213,1,2,4,559,1,1023,155,1,4,6,0,111,2,0,0
5213,1,1,2,557,1,932,156,1,4,6,0,111,2,0,0
5213,1,1,1,504,1,632,160,1,4,6,0,111,2,0,0
5213,1,2,3,349,1,1028,165,1,4,6,0,111,2,0,0
5213,1,2,3,405,1,705,166,1,4,6,0,111,2,0,0
5213,1,1,2,306,1,927,169,1,4,6,0,111,2,0,0
5213,1,1,2,472,1,1464,174,1,4,6,0,111,2,0,0
5213,1,2,3,478,1,488,178,1,2,7,0,111,2,0,0
5213,1,1,2,395,1,395,179,1,2,7,0,111,2,0,0
5213,1,1,1,562,1,305,182,1,2,7,0,100,2,0,0
5213,1,2,4,517,0,225,184,2,2,7,0,100,2,0,0
5213,1,2,3,380,0,212,185,2,2,7,0,100,2,0,0
5213,1,1,2,570,1,376,186,1,2,7,0,100,2,0,0
5213,1,2,4,566,1,851,190,1,2,7,0,111,2,0,0
5213,1,1,2,531,1,556,191,1,2,7,0,111,2,0,0
5213,1,1,2,515,0,270,201,2,2,7,0,100,2,0,0
5213,1,2,4,323,1,1004,206,1,2,7,0,111,2,0,0
5213,1,2,4,353,1,897,207,1,2,7,0,111,2,0,0
5213,1,1,2,474,1,452,210,1,4,8,0,111,2,0,0
5213,1,2,3,457,1,612,212,1,4,8,0,100,2,0,0
5213,1,1,1,473,1,506,213,1,4,8,0,111,2,0,0
5213,1,1,1,527,1,356,215,1,4,8,0,111,2,0,0
5213,1,1,1,305,1,392,217,1,4,8,0,111,2,0,0
5213,1,2,4,530,1,653,222,1,4,8,0,111,2,0,0
5213,1,1,2,453,1,728,223,1,4,8,0,111,2,0,0
5213,1,2,3,328,1,797,229,1,4,8,0,111,2,0,0
5213,1,2,4,439,1,538,230,1,4,8,0,111,2,0,0
5213,1,2,4,329,1,1493,231,1,4,8,0,111,2,0,0
5213,1,1,1,346,1,485,232,1,4,8,0,111,2,0,0
5213,1,1,2,516,1,585,236,1,4,8,0,111,2,0,0
5213,1,2,4,323,1,276,240,1,4,8,0,111,2,0,0
5213,1,2,3,539,1,574,242,1,2,9,0,111,2,0,0
5213,1,2,3,448,0,435,243,2,2,9,0,111,2,0,0
5213,1,1,2,415,1,573,244,1,2,9,0,100,2,0,0
5213,1,2,3,450,1,406,250,1,2,9,0,100,2,0,0
5213,1,2,4,565,0,398,251,2,2,9,0,111,2,0,0
5213,1,1,2,409,0,361,252,2,2,9,0,100,2,0,0
5213,1,1,1,538,1,693,259,1,2,9,0,100,2,0,0
5213,1,2,3,489,1,438,261,1,2,9,0,111,2,0,0
5213,1,1,2,510,1,487,262,1,2,9,0,111,2,0,0
5213,1,2,4,404,1,283,264,1,2,9,0,100,2,0,0
5213,1,1,1,355,1,320,265,1,2,9,0,111,2,0,0
5213,1,1,2,306,1,550,274,1,4,10,0,111,2,0,0
5213,1,1,1,425,1,565,276,1,4,10,0,100,2,0,0
5213,1,1,1,453,1,449,279,1,4,10,0,111,2,0,0
5213,1,2,3,446,1,434,281,1,4,10,0,111,2,0,0
5213,1,1,2,554,1,331,282,1,4,10,0,111,2,0,0
5213,1,2,4,421,1,286,284,1,4,10,0,111,2,0,0
5213,1,1,1,512,1,307,285,1,4,10,0,111,2,0,0
5213,1,1,1,501,1,397,288,1,4,10,0,111,2,0,0
5213,1,1,2,307,1,573,293,1,4,10,0,111,2,0,0
5213,1,2,4,513,1,647,295,1,4,10,0,111,2,0,0
5213,1,2,4,545,1,704,296,1,4,10,0,111,2,0,0
5213,1,1,2,577,1,767,297,1,4,10,0,111,2,0,0
5213,1,1,1,434,1,602,299,1,4,10,0,111,2,0,0
5213,1,2,3,415,1,828,301,1,4,10,0,111,2,0,0
5213,1,1,2,391,1,981,302,1,4,10,0,111,2,0,0
5213,1,1,2,375,1,622,304,1,4,10,0,111,2,0,0
5213,1,1,2,485,1,418,306,1,3,11,0,111,2,0,0
5213,1,1,1,569,1,477,308,1,3,11,0,111,2,0,0
5213,1,2,3,402,1,192,310,1,3,11,0,111,2,0,0
5213,1,2,3,365,0,260,311,2,3,11,0,111,2,0,0
5213,1,1,1,364,1,407,312,1,3,11,0,100,2,0,0
5213,1,1,1,422,0,279,317,2,3,11,0,111,2,0,0
5213,1,1,2,391,1,326,319,1,3,11,0,111,2,0,0
5213,1,2,3,525,0,360,322,2,3,11,0,100,2,0,0
5213,1,1,2,477,1,489,325,1,3,11,0,100,2,0,0
5213,1,2,4,489,1,642,331,1,3,11,0,100,2,0,0
5213,1,1,1,447,1,556,332,1,3,11,0,111,2,0,0
5213,1,1,1,587,1,326,339,1,4,12,0,100,2,0,0
5213,1,1,2,397,1,481,343,1,4,12,0,100,2,0,0
5213,1,2,4,508,1,779,351,1,4,12,0,111,2,0,0
5213,1,2,3,389,1,657,352,1,4,12,0,111,2,0,0
5213,1,2,4,404,1,608,355,1,4,12,0,111,2,0,0
5213,1,2,3,493,1,700,356,1,4,12,0,111,2,0,0
5213,1,1,1,582,1,519,357,1,4,12,0,111,2,0,0
5213,1,1,2,357,0,430,359,2,4,12,0,111,2,0,0
5213,1,2,3,488,0,411,361,2,4,12,0,111,2,0,0
5213,1,1,2,353,0,279,362,2,4,12,0,100,2,0,0
5214,1,1,2,418,1,860,19,1,1,2,0,100,2,0,0
5214,1,1,2,401,1,985,51,1,4,3,0,111,2,0,0
5214,1,2,3,538,1,1044,60,1,4,3,0,111,2,0,0
5214,1,1,2,548,1,1312,61,1,4,3,0,111,2,0,0
5214,1,1,2,388,1,1445,64,1,4,3,0,111,2,0,0
5214,1,1,1,532,1,1222,78,1,4,3,0,100,2,0,0
5214,1,1,2,360,1,1124,80,1,4,3,0,111,2,0,0
5214,1,2,4,332,1,1038,83,1,4,4,0,111,2,0,0
5214,1,1,1,516,1,868,84,1,4,4,0,111,2,0,0
5214,1,2,3,346,1,1338,88,1,4,4,0,111,2,0,0
5214,1,1,2,465,1,1196,89,1,4,4,0,111,2,0,0
5214,1,1,2,302,1,1212,96,1,4,4,0,111,2,0,0
5214,1,2,4,412,0,1481,104,2,4,4,0,111,2,0,0
5214,1,1,1,585,1,1383,105,1,4,4,0,100,2,0,0
5214,1,1,2,492,1,1084,107,1,4,4,0,111,2,0,0
5214,1,2,3,385,1,1219,119,1,4,5,0,111,2,0,0
5214,1,2,3,480,1,1069,120,1,4,5,0,111,2,0,0
5214,1,1,1,429,1,992,121,1,4,5,0,111,2,0,0
5214,1,2,3,588,1,1027,125,1,4,5,0,100,2,0,0
5214,1,1,1,433,1,1189,128,1,4,5,0,111,2,0,0
5214,1,2,3,402,1,1064,135,1,4,5,0,111,2,0,0
5214,1,1,2,381,1,1234,136,1,4,5,0,111,2,0,0
5214,1,1,1,530,1,1093,139,1,4,5,0,111,2,0,0
5214,1,2,3,508,1,1362,150,1,4,6,0,111,2,0,0
5214,1,1,1,572,1,990,151,1,4,6,0,111,2,0,0
5214,1,1,2,347,1,1473,159,1,4,6,0,100,2,0,0
5214,1,2,3,446,1,1041,165,1,4,6,0,111,2,0,0
5214,1,1,1,559,1,1184,166,1,4,6,0,111,2,0,0
5214,1,2,3,474,1,915,172,1,4,6,0,111,2,0,0
5214,1,1,2,377,1,1019,173,1,4,6,0,111,2,0,0
5214,1,2,4,581,1,1310,175,1,4,6,0,100,2,0,0
5214,1,1,2,313,1,1118,176,1,4,6,0,111,2,0,0
5214,1,2,3,382,1,735,189,1,2,7,0,111,2,0,0
5214,1,1,1,395,1,1093,192,1,2,7,0,111,2,0,0
5214,1,2,4,363,1,939,199,1,2,7,0,111,2,0,0
5214,1,2,4,333,1,1157,203,1,2,7,0,100,2,0,0
5214,1,1,2,533,1,1007,204,1,2,7,0,111,2,0,0
5214,1,2,3,564,0,1074,212,2,4,8,0,111,2,0,0
5214,1,1,1,325,1,881,213,1,4,8,0,100,2,0,0
5214,1,2,4,470,1,1466,215,1,4,8,0,111,2,0,0
5214,1,1,1,450,1,962,216,1,4,8,0,111,2,0,0
5214,1,1,1,343,1,1095,218,1,4,8,0,111,2,0,0
5214,1,1,2,564,1,784,220,1,4,8,0,100,2,0,0
5214,1,2,4,356,1,1000,223,1,4,8,0,100,2,0,0
5214,1,1,2,461,1,1095,224,1,4,8,0,111,2,0,0
5214,1,2,4,367,1,759,228,1,4,8,0,100,2,0,0
5214,1,1,2,512,1,880,229,1,4,8,0,111,2,0,0
5214,1,1,1,586,1,924,232,1,4,8,0,111,2,0,0
5214,1,2,3,355,1,1406,238,1,4,8,0,100,2,0,0
5214,1,1,1,448,1,962,239,1,4,8,0,111,2,0,0
5214,1,2,4,515,1,992,242,1,2,9,0,100,2,0,0
5214,1,1,2,407,1,979,243,1,2,9,0,111,2,0,0
5214,1,1,1,419,1,980,251,1,2,9,0,111,2,0,0
5214,1,2,3,405,1,1440,257,1,2,9,0,111,2,0,0
5214,1,1,1,580,1,926,266,1,2,9,0,111,2,0,0
5214,1,1,2,377,1,1454,268,1,2,9,0,100,2,0,0
5214,1,1,1,417,1,926,270,1,2,9,0,100,2,0,0
5214,1,1,2,581,1,748,274,1,4,10,0,111,2,0,0
5214,1,2,4,458,1,642,277,1,4,10,0,111,2,0,0
5214,1,1,1,328,1,757,278,1,4,10,0,111,2,0,0
5214,1,1,2,375,1,1158,292,1,4,10,0,111,2,0,0
5214,1,2,3,383,1,1319,294,1,4,10,0,111,2,0,0
5214,1,1,1,543,1,794,295,1,4,10,0,111,2,0,0
5214,1,1,2,590,1,788,297,1,4,10,0,111,2,0,0
5214,1,1,2,378,1,1375,300,1,4,10,0,100,2,0,0
5214,1,1,1,337,1,945,304,1,4,10,0,100,2,0,0
5214,1,1,2,569,1,1147,306,1,4,11,0,100,2,0,0
5214,1,1,2,349,1,844,308,1,4,11,0,111,2,0,0
5214,1,1,1,310,1,912,312,1,4,11,0,100,2,0,0
5214,1,1,2,559,1,902,315,1,4,11,0,111,2,0,0
5214,1,2,3,455,0,983,318,2,4,11,0,111,2,0,0
5214,1,2,4,415,0,1015,319,2,4,11,0,100,2,0,0
5214,1,1,2,387,1,685,322,1,4,11,0,100,2,0,0
5214,1,1,2,474,1,1238,324,1,4,11,0,111,2,0,0
5214,1,2,3,404,1,1207,329,1,4,11,0,111,2,0,0
5214,1,2,4,526,1,1146,330,1,4,11,0,111,2,0,0
5214,1,2,3,321,0,1025,331,2,4,11,0,111,2,0,0
5214,1,1,1,367,1,840,334,1,4,11,0,111,2,0,0
5214,1,1,2,487,1,1028,338,1,2,12,0,111,2,0,0
5214,1,1,2,549,1,953,340,1,2,12,0,100,2,0,0
5214,1,1,2,468,1,879,342,1,2,12,0,111,2,0,0
5214,1,2,4,435,1,1100,346,1,2,12,0,111,2,0,0
5214,1,1,1,557,1,1093,347,1,2,12,0,111,2,0,0
5214,1,2,4,532,0,1238,354,2,2,12,0,111,2,0,0
5214,1,2,3,497,0,800,355,2,2,12,0,100,2,0,0
5214,1,2,4,534,0,1251,356,2,2,12,0,100,2,0,0
5214,1,1,1,580,1,876,357,1,2,12,0,100,2,0,0
5214,1,1,2,391,1,1136,362,1,2,12,0,111,2,0,0
5214,1,1,1,487,1,821,364,1,2,12,0,100,2,0,0
5215,1,2,4,428,1,689,19,1,1,2,0,111,2,0,0
5215,1,2,4,350,0,470,20,2,1,2,0,111,2,0,0
5215,1,2,3,371,1,742,21,1,1,2,0,100,2,0,0
5215,1,1,2,568,1,464,22,1,1,2,0,111,2,0,0
5215,1,2,4,336,1,1094,26,1,1,2,0,111,2,0,0
5215,1,2,4,431,0,467,27,2,1,2,0,111,2,0,0
5215,1,1,1,515,0,424,28,2,1,2,0,100,2,0,0
5215,1,1,1,529,1,533,31,1,1,2,0,100,2,0,0
5215,1,2,3,425,1,625,35,1,1,2,0,111,2,0,0
5215,1,2,3,497,1,667,36,1,1,2,0,111,2,0,0
5215,1,1,1,588,1,625,37,1,1,2,0,111,2,0,0
5215,1,1,2,592,1,597,40,1,1,2,0,111,2,0,0
5215,1,1,1,338,1,882,43,1,1,2,0,111,2,0,0
5215,1,2,3,581,1,543,46,1,1,2,0,111,2,0,0
5215,1,1,1,487,0,600,47,2,1,2,0,111,2,0,0
5215,1,1,2,474,1,611,50,1,2,3,0,111,2,0,0
5215,1,1,2,419,1,509,53,1,2,3,0,111,2,0,0
5215,1,1,1,420,1,511,55,1,2,3,0,111,2,0,0
5215,1,2,4,484,1,891,58,1,2,3,0,111,2,0,0
5215,1,2,4,366,1,694,59,1,2,3,0,111,2,0,0
5215,1,1,1,449,1,580,60,1,2,3,0,111,2,0,0
5215,1,2,3,599,1,844,62,1,2,3,0,111,2,0,0
5215,1,1,1,498,1,520,63,1,2,3,0,111,2,0,0
5215,1,1,1,520,1,486,69,1,2,3,0,111,2,0,0
5215,1,2,3,516,1,1092,72,1,2,3,0,111,2,0,0
5215,1,2,4,437,1,622,77,1,2,3,0,111,2,0,0
5215,1,2,3,338,1,606,78,1,2,3,0,111,2,0,0
5215,1,2,4,500,1,520,79,1,2,3,0,111,2,0,0
5215,1,2,4,339,0,645,80,2,2,3,0,111,2,0,0
5215,1,1,2,489,1,544,84,1,3,4,0,111,2,0,0
5215,1,2,3,380,1,654,86,1,3,4,0,111,2,0,0
5215,1,2,3,410,1,627,87,1,3,4,0,111,2,0,0
5215,1,1,1,465,1,514,88,1,3,4,0,111,2,0,0
5215,1,2,3,363,1,634,90,1,3,4,0,111,2,0,0
5215,1,1,1,448,1,610,91,1,3,4,0,111,2,0,0
5215,1,1,2,361,1,878,93,1,3,4,0,111,2,0,0
5215,1,1,2,586,1,605,96,1,3,4,0,111,2,0,0
5215,1,2,4,499,1,460,99,1,3,4,0,111,2,0,0
5215,1,1,1,492,1,393,100,1,3,4,0,111,2,0,0
5215,1,2,3,425,0,450,103,2,3,4,0,100,2,0,0
5215,1,2,4,385,1,999,104,1,3,4,0,100,2,0,0
5215,1,2,3,327,1,810,105,1,3,4,0,111,2,0,0
5215,1,1,2,330,1,1184,106,1,3,4,0,111,2,0,0
5215,1,2,3,425,1,530,111,1,3,4,0,111,2,0,0
5215,1,1,1,475,1,739,112,1,3,4,0,111,2,0,0
5215,1,1,2,371,1,609,114,1,3,5,0,111,2,0,0
5215,1,1,2,595,1,491,116,1,3,5,0,111,2,0,0
5215,1,2,4,560,1,759,118,1,3,5,0,100,2,0,0
5215,1,2,4,545,1,587,119,1,3,5,0,111,2,0,0
5215,1,2,3,551,0,537,120,2,3,5,0,111,2,0,0
5215,1,1,1,352,1,1164,121,1,3,5,0,100,2,0,0
5215,1,2,3,569,1,621,127,1,3,5,0,111,2,0,0
5215,1,1,2,430,1,522,128,1,3,5,0,111,2,0,0
5215,1,2,4,514,1,499,130,1,3,5,0,111,2,0,0
5215,1,2,4,553,0,350,131,2,3,5,0,111,2,0,0
5215,1,2,4,360,1,686,132,1,3,5,0,100,2,0,0
5215,1,1,1,464,1,764,133,1,3,5,0,111,2,0,0
5215,1,1,2,313,1,648,135,1,3,5,0,111,2,0,0
5215,1,2,4,590,1,591,137,1,3,5,0,111,2,0,0
5215,1,1,1,529,1,573,138,1,3,5,0,111,2,0,0
5215,1,1,2,352,1,1035,142,1,3,5,0,100,2,0,0
5215,1,2,3,345,1,525,147,1,2,6,0,111,2,0,0
5215,1,1,2,376,1,518,148,1,2,6,0,111,2,0,0
5215,1,2,4,575,1,764,151,1,2,6,0,100,2,0,0
5215,1,2,3,363,1,677,152,1,2,6,0,111,2,0,0
5215,1,1,1,574,1,724,153,1,2,6,0,111,2,0,0
5215,1,1,2,523,1,568,155,1,2,6,0,111,2,0,0
5215,1,2,3,335,1,729,157,1,2,6,0,111,2,0,0
5215,1,1,2,370,1,550,158,1,2,6,0,111,2,0,0
5215,1,2,3,312,1,639,163,1,2,6,0,111,2,0,0
5215,1,1,2,394,1,548,164,1,2,6,0,111,2,0,0
5215,1,1,2,586,1,576,166,1,2,6,0,111,2,0,0
5215,1,2,4,456,1,972,168,1,2,6,0,111,2,0,0
5215,1,2,4,424,1,897,169,1,2,6,0,111,2,0,0
5215,1,2,3,571,1,857,170,1,2,6,0,111,2,0,0
5215,1,1,1,419,1,851,171,1,2,6,0,111,2,0,0
5215,1,1,2,571,1,613,173,1,2,6,0,111,2,0,0
5215,1,1,2,380,1,585,179,1,3,7,0,100,2,0,0
5215,1,1,2,431,1,472,181,1,3,7,0,111,2,0,0
5215,1,1,2,582,1,777,184,1,3,7,0,100,2,0,0
5215,1,2,4,406,1,527,186,1,3,7,0,111,2,0,0
5215,1,1,1,401,1,624,187,1,3,7,0,111,2,0,0
5215,1,2,3,434,1,728,190,1,3,7,0,111,2,0,0
5215,1,1,1,351,1,666,191,1,3,7,0,111,2,0,0
5215,1,1,2,325,1,589,193,1,3,7,0,111,2,0,0
5215,1,2,3,439,1,1299,196,1,3,7,0,100,2,0,0
5215,1,2,4,414,1,646,197,1,3,7,0,111,2,0,0
5215,1,1,1,557,1,604,198,1,3,7,0,111,2,0,0
5215,1,2,3,419,1,801,201,1,3,7,0,111,2,0,0
5215,1,2,4,447,1,765,202,1,3,7,0,111,2,0,0
5215,1,2,4,594,1,673,203,1,3,7,0,111,2,0,0
5215,1,1,2,419,1,732,204,1,3,7,0,111,2,0,0
5215,1,1,1,471,1,767,208,1,3,7,0,111,2,0,0
5215,1,2,3,363,1,541,212,1,3,8,0,111,2,0,0
5215,1,2,4,551,1,381,213,1,3,8,0,111,2,0,0
5215,1,1,1,575,1,402,214,1,3,8,0,111,2,0,0
5215,1,2,4,588,0,256,219,2,3,8,0,111,2,0,0
5215,1,2,3,359,1,702,220,1,3,8,0,100,2,0,0
5215,1,1,2,489,1,629,221,1,3,8,0,111,2,0,0
5215,1,2,4,354,1,646,225,1,3,8,0,111,2,0,0
5215,1,2,3,565,1,567,226,1,3,8,0,111,2,0,0
5215,1,2,3,398,1,1282,227,1,3,8,0,111,2,0,0
5215,1,1,2,531,1,647,228,1,3,8,0,111,2,0,0
5215,1,1,2,444,1,500,230,1,3,8,0,111,2,0,0
5215,1,1,2,492,1,672,232,1,3,8,0,111,2,0,0
5215,1,1,1,332,1,690,234,1,3,8,0,111,2,0,0
5215,1,1,1,368,1,598,236,1,3,8,0,111,2,0,0
5215,1,1,2,437,1,645,242,1,3,9,0,111,2,0,0
5215,1,2,4,422,1,1245,246,1,3,9,0,111,2,0,0
5215,1,1,2,588,1,655,247,1,3,9,0,111,2,0,0
5215,1,2,3,399,1,397,252,1,3,9,0,111,2,0,0
5215,1,1,1,555,1,428,253,1,3,9,0,111,2,0,0
5215,1,2,3,565,1,837,255,1,3,9,0,100,2,0,0
5215,1,2,4,325,1,690,256,1,3,9,0,111,2,0,0
5215,1,2,3,349,1,715,257,1,3,9,0,111,2,0,0
5215,1,1,2,408,1,460,258,1,3,9,0,111,2,0,0
5215,1,1,2,382,1,1218,260,1,3,9,0,100,2,0,0
5215,1,2,4,382,1,1456,264,1,3,9,0,111,2,0,0
5215,1,2,4,408,1,864,265,1,3,9,0,111,2,0,0
5215,1,1,1,452,1,695,266,1,3,9,0,111,2,0,0
5215,1,1,2,391,1,507,270,1,3,9,0,111,2,0,0
5215,1,2,3,597,1,716,276,1,3,10,0,100,2,0,0
5215,1,2,3,348,1,508,277,1,3,10,0,111,2,0,0
5215,1,2,4,332,1,619,278,1,3,10,0,111,2,0,0
5215,1,1,1,442,1,494,279,1,3,10,0,111,2,0,0
5215,1,2,3,492,1,644,283,1,3,10,0,111,2,0,0
5215,1,2,4,397,1,682,284,1,3,10,0,111,2,0,0
5215,1,1,2,519,1,740,285,1,3,10,0,111,2,0,0
5215,1,1,2,378,1,833,288,1,3,10,0,111,2,0,0
5215,1,1,2,545,1,612,290,1,3,10,0,111,2,0,0
5215,1,2,3,592,1,666,292,1,3,10,0,111,2,0,0
5215,1,1,2,370,1,534,293,1,3,10,0,111,2,0,0
5215,1,1,1,449,1,951,297,1,3,10,0,100,2,0,0
5215,1,1,1,412,1,547,299,1,3,10,0,111,2,0,0
5215,1,2,3,424,1,736,302,1,3,10,0,111,2,0,0
5215,1,1,2,358,1,496,303,1,3,10,0,111,2,0,0
5215,1,2,4,349,1,488,310,1,3,11,0,111,2,0,0
5215,1,1,2,566,1,428,311,1,3,11,0,111,2,0,0
5215,1,2,3,343,1,571,313,1,3,11,0,111,2,0,0
5215,1,2,3,401,1,530,314,1,3,11,0,111,2,0,0
5215,1,1,2,438,1,454,315,1,3,11,0,111,2,0,0
5215,1,1,2,448,1,562,319,1,3,11,0,111,2,0,0
5215,1,2,4,462,1,514,321,1,3,11,0,111,2,0,0
5215,1,1,2,575,1,479,322,1,3,11,0,111,2,0,0
5215,1,2,3,475,1,497,327,1,3,11,0,111,2,0,0
5215,1,1,2,335,1,715,328,1,3,11,0,111,2,0,0
5215,1,2,3,308,1,949,330,1,3,11,0,111,2,0,0
5215,1,2,4,470,1,610,331,1,3,11,0,111,2,0,0
5215,1,1,2,527,1,725,332,1,3,11,0,111,2,0,0
5215,1,1,1,309,1,716,334,1,3,11,0,111,2,0,0
5215,1,2,3,437,1,744,338,1,3,12,0,111,2,0,0
5215,1,2,4,538,0,609,339,2,3,12,0,111,2,0,0
5215,1,1,1,331,1,885,340,1,3,12,0,100,2,0,0
5215,1,1,2,541,1,544,344,1,3,12,0,111,2,0,0
5215,1,2,3,551,1,436,349,1,3,12,0,111,2,0,0
5215,1,2,4,550,1,377,350,1,3,12,0,111,2,0,0
5215,1,1,1,506,1,445,351,1,3,12,0,111,2,0,0
5215,1,1,1,450,1,977,353,1,3,12,0,100,2,0,0
5215,1,1,2,339,1,941,356,1,3,12,0,111,2,0,0
5215,1,2,3,387,1,542,358,1,3,12,0,111,2,0,0
5215,1,1,2,538,1,540,359,1,3,12,0,111,2,0,0
5215,1,1,2,594,1,599,362,1,3,12,0,111,2,0,0
5215,1,1,1,452,1,607,364,1,3,12,0,111,2,0,0
5215,1,2,3,522,1,502,366,1,3,12,0,111,2,0,0
5215,1,2,4,547,1,531,367,1,3,12,0,111,2,0,0
5215,1,1,1,471,1,482,368,1,3,12,0,111,2,0,0
5217,1,1,1,382,1,356,21,1,1,2,0,111,2,0,0
5217,1,1,2,540,0,311,23,2,1,2,0,100,2,0,0
5217,1,2,4,501,0,206,25,2,1,2,0,111,2,0,0
5217,1,2,3,350,1,693,26,1,1,2,0,100,2,0,0
5217,1,1,2,449,1,274,27,1,1,2,0,111,2,0,0
5217,1,1,2,514,1,181,29,1,1,2,0,100,2,0,0
5217,1,2,3,372,0,352,31,2,1,2,0,111,2,0,0
5217,1,1,1,436,1,216,32,1,1,2,0,100,2,0,0
5217,1,1,1,409,1,298,34,1,1,2,0,111,2,0,0
5217,1,2,3,565,0,332,37,2,1,2,0,111,2,0,0
5217,1,2,4,492,0,345,38,2,1,2,0,100,2,0,0
5217,1,2,3,469,1,546,43,1,1,2,0,111,2,0,0
5217,1,1,2,447,1,257,44,1,1,2,0,111,2,0,0
5217,1,1,1,307,0,381,46,2,1,2,0,111,2,0,0
5217,1,1,1,441,1,385,52,1,4,3,0,100,2,0,0
5217,1,2,3,559,0,305,55,2,4,3,0,100,2,0,0
5217,1,1,2,559,0,349,56,2,4,3,0,100,2,0,0
5217,1,2,4,585,1,516,61,1,4,3,0,111,2,0,0
5217,1,1,1,531,1,306,62,1,4,3,0,111,2,0,0
5217,1,2,4,586,0,540,64,2,4,3,0,100,2,0,0
5217,1,1,1,426,1,1207,65,1,4,3,0,100,2,0,0
5217,1,2,3,503,1,421,67,1,4,3,0,100,2,0,0
5217,1,2,3,501,1,945,68,1,4,3,0,111,2,0,0
5217,1,2,3,413,1,374,69,1,4,3,0,111,2,0,0
5217,1,2,3,359,0,404,70,2,4,3,0,111,2,0,0
5217,1,1,1,408,1,673,71,1,4,3,0,100,2,0,0
5217,1,2,4,577,1,286,79,1,4,3,0,100,2,0,0
5217,1,1,2,505,1,297,80,1,4,3,0,111,2,0,0
5217,1,2,4,461,0,317,82,2,4,4,0,111,2,0,0
5217,1,2,3,481,0,153,83,2,4,4,0,100,2,0,0
5217,1,1,2,382,1,563,84,1,4,4,0,100,2,0,0
5217,1,1,2,374,1,294,86,1,4,4,0,111,2,0,0
5217,1,2,3,389,1,322,91,1,4,4,0,111,2,0,0
5217,1,1,1,582,0,331,92,2,4,4,0,111,2,0,0
5217,1,1,1,319,1,407,95,1,4,4,0,100,2,0,0
5217,1,1,1,324,1,432,102,1,4,4,0,100,2,0,0
5217,1,1,1,524,1,392,104,1,4,4,0,100,2,0,0
5217,1,2,4,534,1,603,109,1,4,4,0,100,2,0,0
5217,1,1,2,321,0,412,114,2,4,5,0,111,2,0,0
5217,1,2,4,540,1,495,116,1,4,5,0,111,2,0,0
5217,1,1,1,411,1,308,117,1,4,5,0,111,2,0,0
5217,1,1,1,585,1,321,122,1,4,5,0,111,2,0,0
5217,1,2,4,542,0,217,124,2,4,5,0,100,2,0,0
5217,1,1,2,380,1,530,125,1,4,5,0,100,2,0,0
5217,1,1,2,543,1,379,129,1,4,5,0,111,2,0,0
5217,1,1,1,380,0,355,131,2,4,5,0,100,2,0,0
5217,1,2,3,547,1,486,135,1,4,5,0,111,2,0,0
5217,1,1,2,502,1,661,136,1,4,5,0,111,2,0,0
5217,1,2,3,301,1,720,138,1,4,5,0,111,2,0,0
5217,1,1,1,548,1,487,139,1,4,5,0,111,2,0,0
5217,1,1,2,412,0,484,142,2,4,5,0,111,2,0,0
5217,1,1,2,410,1,612,144,1,4,5,0,111,2,0,0
5217,1,2,4,593,1,437,146,1,4,6,0,100,2,0,0
5217,1,2,3,411,1,426,147,1,4,6,0,111,2,0,0
5217,1,2,3,443,1,655,148,1,4,6,0,111,2,0,0
5217,1,1,2,405,1,565,149,1,4,6,0,111,2,0,0
5217,1,2,4,361,1,570,151,1,4,6,0,100,2,0,0
5217,1,2,3,451,1,366,152,1,4,6,0,111,2,0,0
5217,1,1,1,460,1,520,153,1,4,6,0,111,2,0,0
5217,1,1,2,362,1,390,161,1,4,6,0,111,2,0,0
5217,1,2,3,307,1,335,164,1,4,6,0,111,2,0,0
5217,1,2,4,349,1,416,165,1,4,6,0,111,2,0,0
5217,1,1,1,442,1,371,166,1,4,6,0,111,2,0,0
5217,1,1,2,423,1,371,170,1,4,6,0,111,2,0,0
5217,1,1,2,356,1,602,173,1,4,6,0,111,2,0,0
5217,1,2,4,407,0,444,176,2,4,6,0,111,2,0,0
5217,1,1,2,494,0,295,179,2,4,7,0,100,2,0,0
5217,1,2,4,551,0,268,184,2,4,7,0,111,2,0,0
5217,1,2,4,434,1,237,185,1,4,7,0,100,2,0,0
5217,1,1,1,312,1,578,186,1,4,7,0,111,2,0,0
5217,1,2,3,532,1,314,188,1,4,7,0,100,2,0,0
5217,1,2,4,522,0,311,189,2,4,7,0,111,2,0,0
5217,1,1,2,543,1,557,190,1,4,7,0,100,2,0,0
5217,1,1,2,578,1,256,192,1,4,7,0,111,2,0,0
5217,1,1,2,469,1,426,195,1,4,7,0,111,2,0,0
5217,1,2,3,478,1,271,198,1,4,7,0,111,2,0,0
5217,1,1,1,359,0,253,199,2,4,7,0,111,2,0,0
5217,1,2,4,343,1,421,203,1,4,7,0,111,2,0,0
5217,1,2,4,527,0,272,204,2,4,7,0,111,2,0,0
5217,1,2,3,404,0,381,205,2,4,7,0,100,2,0,0
5217,1,1,1,412,1,502,206,1,4,7,0,100,2,0,0
5217,1,1,1,529,1,634,210,1,4,8,0,111,2,0,0
5217,1,1,1,462,1,560,212,1,4,8,0,100,2,0,0
5217,1,2,3,336,1,618,216,1,4,8,0,100,2,0,0
5217,1,2,3,363,0,465,217,2,4,8,0,111,2,0,0
5217,1,2,4,528,0,449,218,2,4,8,0,100,2,0,0
5217,1,1,1,506,1,544,219,1,4,8,0,100,2,0,0
5217,1,1,2,354,1,387,222,1,4,8,0,100,2,0,0
5217,1,1,2,595,1,397,224,1,4,8,0,111,2,0,0
5217,1,1,1,476,1,584,226,1,4,8,0,100,2,0,0
5217,1,2,3,532,1,493,229,1,4,8,0,111,2,0,0
5217,1,2,4,480,1,297,230,1,4,8,0,111,2,0,0
5217,1,1,2,443,0,281,231,2,4,8,0,111,2,0,0
5217,1,1,2,597,1,328,234,1,4,8,0,111,2,0,0
5217,1,1,2,551,1,205,236,1,4,8,0,100,2,0,0
5217,1,2,4,463,1,216,239,1,4,8,0,111,2,0,0
5217,1,1,1,486,1,322,240,1,4,8,0,111,2,0,0
5217,1,2,3,537,1,507,246,1,4,9,0,111,2,0,0
5217,1,2,4,310,1,385,247,1,4,9,0,111,2,0,0
5217,1,1,2,542,1,467,248,1,4,9,0,111,2,0,0
5217,1,2,3,342,1,768,250,1,4,9,0,111,2,0,0
5217,1,1,1,358,1,597,251,1,4,9,0,111,2,0,0
5217,1,2,4,454,0,190,253,2,4,9,0,100,2,0,0
5217,1,1,1,430,0,403,254,2,4,9,0,100,2,0,0
5217,1,1,1,503,1,517,257,1,4,9,0,111,2,0,0
5217,1,2,4,583,1,444,263,1,4,9,0,111,2,0,0
5217,1,1,1,354,1,642,264,1,4,9,0,111,2,0,0
5217,1,2,4,388,0,339,266,2,4,9,0,100,2,0,0
5217,1,1,1,534,1,729,270,1,4,9,0,100,2,0,0
5217,1,2,4,424,1,594,272,1,4,9,0,111,2,0,0
5217,1,2,4,324,1,630,275,1,2,10,0,100,2,0,0
5217,1,2,3,308,1,341,276,1,2,10,0,111,2,0,0
5217,1,2,3,579,0,313,277,2,2,10,0,111,2,0,0
5217,1,1,1,587,1,282,278,1,2,10,0,100,2,0,0
5217,1,2,3,370,0,368,281,2,2,10,0,111,2,0,0
5217,1,1,2,518,1,534,282,1,2,10,0,100,2,0,0
5217,1,2,4,406,0,393,285,2,2,10,0,111,2,0,0
5217,1,1,2,489,1,164,286,1,2,10,0,100,2,0,0
5217,1,1,2,317,1,646,291,1,2,10,0,111,2,0,0
5217,1,2,4,412,1,664,295,1,2,10,0,100,2,0,0
5217,1,1,1,318,1,578,296,1,2,10,0,111,2,0,0
5217,1,2,3,406,1,307,300,1,2,10,0,111,2,0,0
5217,1,2,4,507,1,370,301,1,2,10,0,111,2,0,0
5217,1,2,4,320,0,316,302,2,2,10,0,111,2,0,0
5217,1,1,2,385,1,402,303,1,2,10,0,100,2,0,0
5217,1,1,2,314,0,459,310,2,2,11,0,100,2,0,0
5217,1,2,4,539,1,367,313,1,2,11,0,111,2,0,0
5217,1,2,4,459,0,403,314,2,2,11,0,111,2,0,0
5217,1,2,4,428,1,323,315,1,2,11,0,100,2,0,0
5217,1,1,1,330,0,407,316,2,2,11,0,111,2,0,0
5217,1,1,2,581,1,373,322,1,2,11,0,100,2,0,0
5217,1,1,2,570,0,281,330,2,2,11,0,111,2,0,0
5217,1,2,4,440,1,409,332,1,2,11,0,111,2,0,0
5217,1,2,3,402,1,345,333,1,2,11,0,111,2,0,0
5217,1,1,1,542,1,467,334,1,2,11,0,111,2,0,0
5217,1,1,2,575,0,318,339,2,4,12,0,100,2,0,0
5217,1,1,1,497,0,273,341,2,4,12,0,111,2,0,0
5217,1,2,3,397,0,356,345,2,4,12,0,111,2,0,0
5217,1,1,1,520,1,331,346,1,4,12,0,100,2,0,0
5217,1,2,4,400,1,539,351,1,4,12,0,100,2,0,0
5217,1,1,2,412,0,380,352,2,4,12,0,111,2,0,0
5217,1,1,1,346,0,381,354,2,4,12,0,111,2,0,0
5217,1,2,4,491,1,432,357,1,4,12,0,100,2,0,0
5217,1,1,2,311,1,421,358,1,4,12,0,111,2,0,0
5217,1,1,2,546,0,321,362,2,4,12,0,100,2,0,0
5217,1,1,1,559,0,383,364,2,4,12,0,111,2,0,0
5217,1,2,3,331,1,513,367,1,4,12,0,111,2,0,0
5217,1,2,4,437,0,461,368,2,4,12,0,111,2,0,0
5218,1,2,4,531,1,485,19,1,1,2,0,111,2,0,0
5218,1,1,1,595,1,429,20,1,1,2,0,111,2,0,0
5218,1,1,2,523,1,554,22,1,1,2,0,111,2,0,0
5218,1,1,2,528,1,410,25,1,1,2,0,111,2,0,0
5218,1,1,1,584,1,451,30,1,1,2,0,111,2,0,0
5218,1,1,1,481,1,481,32,1,1,2,0,111,2,0,0
5218,1,2,4,401,1,496,34,1,1,2,0,111,2,0,0
5218,1,1,2,416,1,569,35,1,1,2,0,111,2,0,0
5218,1,1,1,418,1,571,37,1,1,2,0,111,2,0,0
5218,1,1,2,599,1,480,40,1,1,2,0,111,2,0,0
5218,1,2,4,309,1,698,45,1,1,2,0,111,2,0,0
5218,1,2,3,500,1,486,46,1,1,2,0,111,2,0,0
5218,1,1,1,307,1,634,47,1,1,2,0,111,2,0,0
5218,1,2,4,507,1,475,54,1,3,3,0,100,2,0,0
5218,1,1,2,382,1,399,55,1,3,3,0,111,2,0,0
5218,1,2,4,358,1,408,59,1,3,3,0,111,2,0,0
5218,1,1,1,515,1,510,60,1,3,3,0,111,2,0,0
5218,1,2,3,555,1,479,62,1,3,3,0,100,2,0,0
5218,1,2,4,569,1,417,63,1,3,3,0,111,2,0,0
5218,1,2,3,519,1,495,64,1,3,3,0,111,2,0,0
5218,1,2,4,335,1,425,65,1,3,3,0,111,2,0,0
5218,1,1,1,519,1,357,66,1,3,3,0,111,2,0,0
5218,1,2,3,398,1,506,68,1,3,3,0,100,2,0,0
5218,1,1,2,506,1,387,69,1,3,3,0,111,2,0,0
5218,1,2,3,347,1,686,73,1,3,3,0,111,2,0,0
5218,1,2,4,370,1,489,74,1,3,3,0,111,2,0,0
5218,1,1,2,436,1,356,75,1,3,3,0,111,2,0,0
5218,1,2,4,570,1,345,77,1,3,3,0,111,2,0,0
5218,1,1,2,416,1,355,78,1,3,3,0,111,2,0,0
5218,1,2,3,395,0,294,82,2,3,4,0,111,2,0,0
5218,1,2,3,435,1,437,83,1,3,4,0,100,2,0,0
5218,1,1,2,473,1,410,84,1,3,4,0,111,2,0,0
5218,1,1,1,483,1,321,86,1,3,4,0,111,2,0,0
5218,1,1,1,307,1,694,90,1,3,4,0,100,2,0,0
5218,1,2,4,358,1,497,92,1,3,4,0,100,2,0,0
5218,1,1,2,586,1,333,93,1,3,4,0,111,2,0,0
5218,1,1,1,364,1,395,98,1,3,4,0,100,2,0,0
5218,1,2,4,364,1,411,101,1,3,4,0,111,2,0,0
5218,1,2,3,410,1,299,102,1,3,4,0,111,2,0,0
5218,1,2,3,351,0,279,103,2,3,4,0,111,2,0,0
5218,1,1,1,456,1,350,104,1,3,4,0,100,2,0,0
5218,1,2,4,334,1,347,108,1,3,4,0,111,2,0,0
5218,1,1,1,313,1,363,109,1,3,4,0,111,2,0,0
5218,1,1,2,449,1,315,114,1,2,5,0,111,2,0,0
5218,1,2,3,439,1,545,116,1,2,5,0,111,2,0,0
5218,1,2,3,459,1,407,117,1,2,5,0,111,2,0,0
5218,1,2,3,590,1,433,118,1,2,5,0,111,2,0,0
5218,1,2,3,355,1,408,119,1,2,5,0,111,2,0,0
5218,1,2,4,545,1,300,120,1,2,5,0,111,2,0,0
5218,1,1,2,332,1,354,121,1,2,5,0,111,2,0,0
5218,1,1,1,375,1,381,128,1,2,5,0,111,2,0,0
5218,1,2,4,394,1,400,131,1,2,5,0,100,2,0,0
5218,1,2,3,577,0,393,132,2,2,5,0,111,2,0,0
5218,1,2,3,599,1,496,133,1,2,5,0,100,2,0,0
5218,1,1,1,328,1,386,134,1,2,5,0,111,2,0,0
5218,1,1,2,502,1,325,136,1,2,5,0,111,2,0,0
5218,1,2,3,383,1,455,143,1,2,5,0,111,2,0,0
5218,1,2,4,385,1,456,144,1,2,5,0,111,2,0,0
5218,1,1,1,591,1,335,146,1,3,6,0,111,2,0,0
5218,1,2,3,458,1,398,148,1,3,6,0,111,2,0,0
5218,1,1,1,592,1,364,149,1,3,6,0,111,2,0,0
5218,1,2,4,592,1,453,152,1,3,6,0,111,2,0,0
5218,1,1,2,407,1,340,153,1,3,6,0,111,2,0,0
5218,1,2,3,562,0,326,159,2,3,6,0,111,2,0,0
5218,1,2,3,402,0,337,160,2,3,6,0,100,2,0,0
5218,1,1,1,363,1,656,161,1,3,6,0,100,2,0,0
5218,1,1,2,537,1,522,164,1,3,6,0,111,2,0,0
5218,1,2,4,509,1,392,166,1,3,6,0,111,2,0,0
5218,1,1,2,439,1,363,167,1,3,6,0,111,2,0,0
5218,1,2,3,506,1,367,169,1,3,6,0,111,2,0,0
5218,1,2,3,395,0,386,170,2,3,6,0,111,2,0,0
5218,1,1,2,329,1,370,171,1,3,6,0,100,2,0,0
5218,1,1,1,517,1,542,173,1,3,6,0,100,2,0,0
5218,1,2,3,323,1,440,182,1,2,7,0,100,2,0,0
5218,1,2,4,428,1,444,183,1,2,7,0,111,2,0,0
5218,1,1,1,526,0,342,184,2,2,7,0,111,2,0,0
5218,1,2,4,309,1,426,186,1,2,7,0,100,2,0,0
5218,1,2,3,424,1,486,187,1,2,7,0,111,2,0,0
5218,1,1,1,417,1,352,188,1,2,7,0,111,2,0,0
5218,1,1,2,377,1,449,191,1,2,7,0,111,2,0,0
5218,1,2,3,526,1,450,193,1,2,7,0,111,2,0,0
5218,1,1,1,311,1,429,194,1,2,7,0,111,2,0,0
5218,1,2,4,556,1,348,196,1,2,7,0,111,2,0,0
5218,1,1,2,359,1,376,197,1,2,7,0,111,2,0,0
5218,1,1,1,453,1,344,199,1,2,7,0,111,2,0,0
5218,1,1,2,503,1,302,201,1,2,7,0,111,2,0,0
5218,1,1,1,396,1,415,204,1,2,7,0,100,2,0,0
5218,1,2,3,470,1,414,207,1,2,7,0,111,2,0,0
5218,1,1,1,495,1,355,208,1,2,7,0,111,2,0,0
5218,1,1,1,589,1,333,211,1,2,8,0,111,2,0,0
5218,1,2,4,431,0,312,215,2,2,8,0,111,2,0,0
5218,1,2,3,491,1,424,216,1,2,8,0,100,2,0,0
5218,1,1,1,506,1,342,217,1,2,8,0,111,2,0,0
5218,1,2,4,598,1,322,219,1,2,8,0,111,2,0,0
5218,1,2,3,330,1,436,220,1,2,8,0,111,2,0,0
5218,1,1,2,536,1,274,221,1,2,8,0,111,2,0,0
5218,1,1,2,598,1,347,225,1,2,8,0,100,2,0,0
5218,1,1,2,359,1,272,227,1,2,8,0,111,2,0,0
5218,1,2,3,458,1,572,231,1,2,8,0,100,2,0,0
5218,1,2,4,364,1,491,232,1,2,8,0,111,2,0,0
5218,1,2,3,374,1,408,233,1,2,8,0,111,2,0,0
5218,1,1,1,400,1,482,234,1,2,8,0,111,2,0,0
5218,1,1,1,396,1,398,236,1,2,8,0,100,2,0,0
5218,1,2,3,498,0,335,239,2,2,8,0,111,2,0,0
5218,1,1,1,586,1,373,240,1,2,8,0,100,2,0,0
5218,1,2,3,366,0,338,242,2,2,9,0,111,2,0,0
5218,1,2,3,434,1,417,243,1,2,9,0,100,2,0,0
5218,1,1,2,363,1,397,244,1,2,9,0,111,2,0,0
5218,1,2,4,330,1,359,246,1,2,9,0,111,2,0,0
5218,1,1,1,483,1,341,247,1,2,9,0,111,2,0,0
5218,1,1,2,406,1,343,250,1,2,9,0,111,2,0,0
5218,1,2,3,355,0,382,256,2,2,9,0,100,2,0,0
5218,1,2,4,335,1,420,257,1,2,9,0,100,2,0,0
5218,1,2,3,587,1,440,258,1,2,9,0,111,2,0,0
5218,1,2,4,334,1,363,259,1,2,9,0,111,2,0,0
5218,1,2,3,588,1,245,260,1,2,9,0,111,2,0,0
5218,1,1,2,331,1,354,261,1,2,9,0,111,2,0,0
5218,1,2,3,347,1,344,264,1,2,9,0,111,2,0,0
5218,1,1,2,503,1,317,265,1,2,9,0,111,2,0,0
5218,1,2,4,417,1,296,267,1,2,9,0,111,2,0,0
5218,1,1,1,440,1,288,268,1,2,9,0,111,2,0,0
5218,1,1,1,450,1,369,277,1,3,10,0,100,2,0,0
5218,1,1,2,423,1,520,281,1,3,10,0,111,2,0,0
5218,1,2,4,359,1,322,284,1,3,10,0,111,2,0,0
5218,1,2,3,588,0,306,285,2,3,10,0,111,2,0,0
5218,1,2,3,327,0,349,286,2,3,10,0,100,2,0,0
5218,1,2,4,448,1,451,287,1,3,10,0,100,2,0,0
5218,1,2,3,352,1,407,288,1,3,10,0,111,2,0,0
5218,1,2,3,333,1,451,289,1,3,10,0,111,2,0,0
5218,1,2,4,389,1,424,290,1,3,10,0,111,2,0,0
5218,1,2,3,436,1,399,291,1,3,10,0,111,2,0,0
5218,1,2,4,373,1,308,292,1,3,10,0,111,2,0,0
5218,1,1,1,506,1,264,293,1,3,10,0,111,2,0,0
5218,1,2,4,352,1,282,298,1,3,10,0,111,2,0,0
5218,1,1,1,430,1,320,299,1,3,10,0,111,2,0,0
5218,1,1,2,397,1,394,302,1,3,10,0,100,2,0,0
5218,1,2,4,446,1,377,308,1,2,11,0,111,2,0,0
5218,1,1,2,383,1,305,309,1,2,11,0,111,2,0,0
5218,1,2,3,334,1,386,311,1,2,11,0,111,2,0,0
5218,1,2,4,391,0,307,312,2,2,11,0,111,2,0,0
5218,1,1,1,367,1,339,313,1,2,11,0,100,2,0,0
5218,1,1,2,383,1,339,315,1,2,11,0,111,2,0,0
5218,1,1,1,565,1,362,318,1,2,11,0,100,2,0,0
5218,1,1,1,435,1,335,321,1,2,11,0,111,2,0,0
5218,1,1,1,318,1,382,323,1,2,11,0,100,2,0,0
5218,1,2,4,378,1,447,325,1,2,11,0,111,2,0,0
5218,1,1,2,440,1,351,326,1,2,11,0,111,2,0,0
5218,1,1,2,365,1,364,328,1,2,11,0,111,2,0,0
5218,1,2,3,413,1,524,331,1,2,11,0,111,2,0,0
5218,1,2,4,352,1,374,332,1,2,11,0,111,2,0,0
5218,1,1,1,507,1,413,333,1,2,11,0,111,2,0,0
5218,1,1,1,445,1,397,336,1,2,11,0,100,2,0,0
5218,1,2,3,310,1,440,339,1,2,12,0,100,2,0,0
5218,1,1,1,380,1,338,340,1,2,12,0,111,2,0,0
5218,1,2,3,396,1,389,342,1,2,12,0,100,2,0,0
5218,1,1,2,317,1,399,343,1,2,12,0,111,2,0,0
5218,1,1,1,478,1,388,345,1,2,12,0,111,2,0,0
5218,1,2,4,333,1,349,347,1,2,12,0,111,2,0,0
5218,1,1,2,373,1,272,348,1,2,12,0,111,2,0,0
5218,1,1,1,499,1,353,350,1,2,12,0,100,2,0,0
5218,1,1,1,551,0,248,354,2,2,12,0,111,2,0,0
5218,1,2,3,563,1,508,357,1,2,12,0,100,2,0,0
5218,1,1,2,426,1,475,358,1,2,12,0,111,2,0,0
5218,1,2,3,467,1,486,362,1,2,12,0,100,2,0,0
5218,1,2,3,399,1,367,363,1,2,12,0,111,2,0,0
5218,1,2,4,387,1,452,364,1,2,12,0,111,2,0,0
5218,1,1,1,570,1,349,365,1,2,12,0,111,2,0,0
5219,1,1,1,303,1,659,21,1,1,2,0,100,2,0,0
5219,1,2,4,472,1,838,24,1,1,2,0,111,2,0,0
5219,1,2,4,428,1,688,25,1,1,2,0,111,2,0,0
5219,1,1,1,342,1,1429,26,1,1,2,0,111,2,0,0
5219,1,2,4,493,1,678,29,1,1,2,0,111,2,0,0
5219,1,1,1,387,1,572,30,1,1,2,0,111,2,0,0
5219,1,2,3,505,1,685,32,1,1,2,0,111,2,0,0
5219,1,2,4,442,1,618,33,1,1,2,0,111,2,0,0
5219,1,2,3,340,1,777,34,1,1,2,0,111,2,0,0
5219,1,1,1,313,1,580,35,1,1,2,0,111,2,0,0
5219,1,1,2,350,1,734,37,1,1,2,0,111,2,0,0
5219,1,1,2,507,1,607,39,1,1,2,0,111,2,0,0
5219,1,2,4,544,1,920,42,1,1,2,0,111,2,0,0
5219,1,2,4,509,1,637,43,1,1,2,0,111,2,0,0
5219,1,1,2,452,1,1302,44,1,1,2,0,111,2,0,0
5219,1,1,1,415,1,633,47,1,1,2,0,111,2,0,0
5219,1,2,4,504,1,677,50,1,2,3,0,100,2,0,0
5219,1,2,4,582,1,537,51,1,2,3,0,111,2,0,0
5219,1,2,3,474,1,760,52,1,2,3,0,111,2,0,0
5219,1,1,1,400,1,709,53,1,2,3,0,111,2,0,0
5219,1,1,1,399,1,1173,58,1,2,3,0,100,2,0,0
5219,1,1,2,471,1,1389,60,1,2,3,0,111,2,0,0
5219,1,1,2,443,1,522,62,1,2,3,0,111,2,0,0
5219,1,1,1,382,1,519,64,1,2,3,0,111,2,0,0
5219,1,1,2,591,1,826,67,1,2,3,0,100,2,0,0
5219,1,2,4,503,1,439,73,1,2,3,0,111,2,0,0
5219,1,1,1,506,1,661,74,1,2,3,0,111,2,0,0
5219,1,2,3,444,1,698,77,1,2,3,0,111,2,0,0
5219,1,1,1,580,1,477,78,1,2,3,0,111,2,0,0
5219,1,2,3,512,1,1355,80,1,2,3,0,111,2,0,0
5219,1,2,3,471,1,643,84,1,2,4,0,111,2,0,0
5219,1,1,2,303,1,524,85,1,2,4,0,111,2,0,0
5219,1,1,1,458,1,615,89,1,2,4,0,111,2,0,0
5219,1,2,3,332,1,594,94,1,2,4,0,111,2,0,0
5219,1,2,4,505,0,404,95,2,2,4,0,111,2,0,0
5219,1,2,4,474,1,666,96,1,2,4,0,100,2,0,0
5219,1,2,4,347,1,302,97,1,2,4,0,111,2,0,0
5219,1,2,3,584,1,967,101,1,2,4,0,111,2,0,0
5219,1,2,4,578,1,699,102,1,2,4,0,111,2,0,0
5219,1,2,4,588,1,782,103,1,2,4,0,111,2,0,0
5219,1,1,1,427,1,1424,108,1,2,4,0,111,2,0,0
5219,1,2,3,400,1,618,114,1,2,5,0,111,2,0,0
5219,1,2,4,594,1,576,115,1,2,5,0,111,2,0,0
5219,1,2,4,355,1,582,116,1,2,5,0,111,2,0,0
5219,1,1,2,383,1,614,117,1,2,5,0,111,2,0,0
5219,1,2,3,567,0,425,124,2,2,5,0,100,2,0,0
5219,1,2,4,386,1,1452,125,1,2,5,0,100,2,0,0
5219,1,1,1,300,1,587,126,1,2,5,0,111,2,0,0
5219,1,1,1,325,1,1270,132,1,2,5,0,111,2,0,0
5219,1,2,3,367,1,580,137,1,2,5,0,111,2,0,0
5219,1,1,2,410,1,560,138,1,2,5,0,111,2,0,0
5219,1,2,3,384,1,1276,142,1,2,5,0,111,2,0,0
5219,1,2,4,477,1,628,143,1,2,5,0,111,2,0,0
5219,1,2,4,438,1,992,144,1,2,5,0,111,2,0,0
5219,1,2,4,416,1,512,148,1,2,6,0,111,2,0,0
5219,1,2,3,356,1,1066,149,1,2,6,0,111,2,0,0
5219,1,1,1,342,1,975,150,1,2,6,0,111,2,0,0
5219,1,2,3,445,1,1104,153,1,2,6,0,111,2,0,0
5219,1,2,4,330,1,660,154,1,2,6,0,111,2,0,0
5219,1,2,3,499,1,577,155,1,2,6,0,111,2,0,0
5219,1,1,2,455,1,501,156,1,2,6,0,111,2,0,0
5219,1,2,3,531,0,394,161,2,2,6,0,111,2,0,0
5219,1,2,3,494,1,708,167,1,2,6,0,111,2,0,0
5219,1,2,4,495,1,859,173,1,2,6,0,111,2,0,0
5219,1,1,2,540,1,698,174,1,2,6,0,111,2,0,0
5219,1,1,2,587,1,509,178,1,2,7,0,111,2,0,0
5219,1,2,4,474,1,449,180,1,2,7,0,111,2,0,0
5219,1,2,3,354,1,600,181,1,2,7,0,111,2,0,0
5219,1,1,2,314,1,443,182,1,2,7,0,111,2,0,0
5219,1,1,2,414,1,391,184,1,2,7,0,111,2,0,0
5219,1,1,1,433,1,746,186,1,2,7,0,111,2,0,0
5219,1,1,1,571,1,516,193,1,2,7,0,111,2,0,0
5219,1,2,3,310,1,749,197,1,2,7,0,100,2,0,0
5219,1,2,4,402,1,724,198,1,2,7,0,111,2,0,0
5219,1,2,3,362,1,1020,199,1,2,7,0,111,2,0,0
5219,1,1,1,596,1,645,200,1,2,7,0,111,2,0,0
5219,1,1,1,369,1,910,206,1,2,7,0,111,2,0,0
5219,1,2,3,501,1,875,213,1,2,8,0,111,2,0,0
5219,1,2,3,348,1,488,214,1,2,8,0,111,2,0,0
5219,1,1,2,442,1,583,215,1,2,8,0,111,2,0,0
5219,1,1,2,533,1,782,217,1,2,8,0,111,2,0,0
5219,1,2,4,346,1,690,219,1,2,8,0,111,2,0,0
5219,1,1,2,357,1,1038,220,1,2,8,0,111,2,0,0
5219,1,2,4,513,1,671,227,1,2,8,0,111,2,0,0
5219,1,2,3,571,1,662,228,1,2,8,0,111,2,0,0
5219,1,2,4,477,1,449,229,1,2,8,0,111,2,0,0
5219,1,1,2,378,1,539,230,1,2,8,0,111,2,0,0
5219,1,1,2,418,1,593,232,1,2,8,0,111,2,0,0
5219,1,2,3,469,1,830,234,1,2,8,0,111,2,0,0
5219,1,1,1,522,1,733,235,1,2,8,0,111,2,0,0
5219,1,1,2,530,1,575,239,1,2,8,0,111,2,0,0
5219,1,2,4,575,1,566,244,1,3,9,0,111,2,0,0
5219,1,2,3,528,1,583,245,1,3,9,0,111,2,0,0
5219,1,1,2,586,1,708,246,1,3,9,0,111,2,0,0
5219,1,2,4,509,1,316,252,1,3,9,0,111,2,0,0
5219,1,2,4,555,0,343,253,2,3,9,0,111,2,0,0
5219,1,2,4,528,1,661,254,1,3,9,0,100,2,0,0
5219,1,1,1,561,1,394,255,1,3,9,0,111,2,0,0
5219,1,1,2,530,1,546,257,1,3,9,0,111,2,0,0
5219,1,1,1,465,1,614,260,1,3,9,0,111,2,0,0
5219,1,1,1,500,1,579,262,1,3,9,0,111,2,0,0
5219,1,2,3,363,1,926,264,1,3,9,0,111,2,0,0
5219,1,2,4,305,1,634,265,1,3,9,0,111,2,0,0
5219,1,1,1,515,1,556,266,1,3,9,0,111,2,0,0
5219,1,2,4,529,1,1100,269,1,3,9,0,111,2,0,0
5219,1,1,2,525,1,871,270,1,3,9,0,111,2,0,0
5219,1,1,2,578,1,735,272,1,3,9,0,111,2,0,0
5219,1,2,4,412,1,1248,274,1,3,10,0,111,2,0,0
5219,1,1,1,434,1,660,275,1,3,10,0,111,2,0,0
5219,1,2,4,474,1,611,279,1,3,10,0,111,2,0,0
5219,1,2,3,352,1,1057,280,1,3,10,0,111,2,0,0
5219,1,1,2,545,1,570,281,1,3,10,0,111,2,0,0
5219,1,2,4,410,1,491,283,1,3,10,0,111,2,0,0
5219,1,1,1,335,1,647,284,1,3,10,0,111,2,0,0
5219,1,1,1,404,1,528,286,1,3,10,0,111,2,0,0
5219,1,2,3,398,1,1480,290,1,3,10,0,111,2,0,0
5219,1,1,2,419,1,720,291,1,3,10,0,111,2,0,0
5219,1,1,1,465,1,652,293,1,3,10,0,111,2,0,0
5219,1,2,4,309,1,543,295,1,3,10,0,111,2,0,0
5219,1,1,2,330,1,578,296,1,3,10,0,111,2,0,0
5219,1,1,2,372,0,174,299,2,3,10,0,111,2,0,0
5219,1,2,3,504,1,434,303,1,3,10,0,111,2,0,0
5219,1,1,2,420,1,635,304,1,3,10,0,111,2,0,0
5219,1,1,1,591,1,555,306,1,3,11,0,111,2,0,0
5219,1,1,1,512,1,591,309,1,3,11,0,111,2,0,0
5219,1,1,2,528,1,491,312,1,3,11,0,111,2,0,0
5219,1,2,4,335,1,718,317,1,3,11,0,111,2,0,0
5219,1,2,3,443,1,789,318,1,3,11,0,111,2,0,0
5219,1,1,2,591,1,1090,319,1,3,11,0,111,2,0,0
5219,1,2,4,545,1,464,321,1,3,11,0,111,2,0,0
5219,1,1,2,489,1,532,322,1,3,11,0,111,2,0,0
5219,1,1,1,322,1,416,328,1,3,11,0,111,2,0,0
5219,1,2,3,508,1,559,331,1,3,11,0,111,2,0,0
5219,1,2,4,415,1,316,332,1,3,11,0,111,2,0,0
5219,1,2,4,359,1,688,333,1,3,11,0,111,2,0,0
5219,1,1,1,416,1,511,336,1,3,11,0,111,2,0,0
5219,1,1,2,429,1,411,339,1,2,12,0,111,2,0,0
5219,1,1,1,332,1,488,341,1,2,12,0,111,2,0,0
5219,1,1,2,388,1,590,343,1,2,12,0,111,2,0,0
5219,1,2,3,518,1,581,345,1,2,12,0,111,2,0,0
5219,1,1,2,409,1,370,346,1,2,12,0,111,2,0,0
5219,1,1,1,530,1,675,348,1,2,12,0,111,2,0,0
5219,1,2,4,508,1,622,351,1,2,12,0,111,2,0,0
5219,1,1,1,466,1,605,352,1,2,12,0,111,2,0,0
5219,1,1,2,340,1,649,354,1,2,12,0,111,2,0,0
5219,1,1,2,486,0,914,357,2,2,12,0,100,2,0,0
5219,1,2,4,327,1,386,362,1,2,12,0,111,2,0,0
5222,1,1,2,341,1,375,18,1,1,2,0,111,2,0,0
5222,1,2,4,479,0,371,21,2,1,2,0,100,2,0,0
5222,1,1,1,349,1,628,22,1,1,2,0,100,2,0,0
5222,1,1,1,371,1,400,24,1,1,2,0,111,2,0,0
5222,1,1,2,334,1,513,26,1,1,2,0,111,2,0,0
5222,1,2,3,350,1,593,28,1,1,2,0,111,2,0,0
5222,1,1,1,464,1,373,29,1,1,2,0,111,2,0,0
5222,1,1,2,454,1,413,32,1,1,2,0,111,2,0,0
5222,1,1,2,401,1,476,34,1,1,2,0,111,2,0,0
5222,1,1,1,388,1,381,39,1,1,2,0,111,2,0,0
5222,1,2,4,477,1,557,41,1,1,2,0,100,2,0,0
5222,1,2,4,427,1,523,42,1,1,2,0,111,2,0,0
5222,1,1,2,448,1,555,43,1,1,2,0,111,2,0,0
5222,1,1,2,381,1,553,45,1,1,2,0,111,2,0,0
5222,1,2,3,432,1,672,48,1,1,2,0,111,2,0,0
5222,1,2,3,423,1,598,51,1,3,3,0,100,2,0,0
5222,1,1,2,453,1,301,52,1,3,3,0,111,2,0,0
5222,1,2,4,529,1,410,57,1,3,3,0,100,2,0,0
5222,1,2,3,496,1,391,58,1,3,3,0,111,2,0,0
5222,1,1,2,392,1,356,59,1,3,3,0,111,2,0,0
5222,1,2,4,547,1,596,62,1,3,3,0,100,2,0,0
5222,1,2,3,423,1,447,63,1,3,3,0,111,2,0,0
5222,1,1,1,515,1,425,64,1,3,3,0,111,2,0,0
5222,1,2,3,551,1,622,69,1,3,3,0,100,2,0,0
5222,1,1,1,314,1,598,70,1,3,3,0,111,2,0,0
5222,1,1,1,476,1,725,72,1,3,3,0,100,2,0,0
5222,1,2,3,386,1,384,74,1,3,3,0,111,2,0,0
5222,1,1,2,335,1,413,75,1,3,3,0,111,2,0,0
5222,1,1,1,488,1,430,77,1,3,3,0,111,2,0,0
5222,1,2,4,444,1,517,79,1,3,3,0,111,2,0,0
5222,1,1,1,507,1,354,80,1,3,3,0,111,2,0,0
5222,1,1,2,416,1,443,84,1,2,4,0,111,2,0,0
5222,1,1,1,495,1,506,87,1,2,4,0,100,2,0,0
5222,1,2,4,463,1,526,90,1,2,4,0,111,2,0,0
5222,1,1,1,487,1,349,91,1,2,4,0,111,2,0,0
5222,1,2,3,311,1,467,93,1,2,4,0,111,2,0,0
5222,1,2,4,580,1,258,94,1,2,4,0,111,2,0,0
5222,1,2,3,520,1,317,95,1,2,4,0,111,2,0,0
5222,1,1,1,466,0,261,96,2,2,4,0,111,2,0,0
5222,1,2,4,559,1,448,98,1,2,4,0,111,2,0,0
5222,1,2,4,391,1,398,99,1,2,4,0,111,2,0,0
5222,1,1,2,303,1,364,100,1,2,4,0,111,2,0,0
5222,1,2,4,438,1,441,102,1,2,4,0,111,2,0,0
5222,1,1,1,312,1,368,103,1,2,4,0,111,2,0,0
5222,1,2,3,337,1,606,108,1,2,4,0,111,2,0,0
5222,1,1,2,469,1,314,109,1,2,4,0,111,2,0,0
5222,1,2,4,339,1,477,114,1,2,5,0,111,2,0,0
5222,1,2,4,429,1,353,115,1,2,5,0,111,2,0,0
5222,1,1,2,457,1,497,116,1,2,5,0,111,2,0,0
5222,1,2,3,479,1,421,120,1,2,5,0,111,2,0,0
5222,1,1,1,573,1,401,121,1,2,5,0,111,2,0,0
5222,1,1,2,385,1,472,124,1,2,5,0,111,2,0,0
5222,1,2,3,337,0,299,128,2,2,5,0,111,2,0,0
5222,1,1,1,569,1,278,129,1,2,5,0,100,2,0,0
5222,1,2,3,324,0,375,134,2,2,5,0,111,2,0,0
5222,1,2,3,512,1,386,135,1,2,5,0,100,2,0,0
5222,1,2,3,395,1,318,136,1,2,5,0,111,2,0,0
5222,1,1,2,474,1,498,137,1,2,5,0,111,2,0,0
5222,1,2,4,337,1,727,139,1,2,5,0,100,2,0,0
5222,1,2,4,369,1,556,140,1,2,5,0,111,2,0,0
5222,1,2,4,527,1,363,141,1,2,5,0,111,2,0,0
5222,1,1,2,525,1,332,142,1,2,5,0,111,2,0,0
5222,1,2,4,501,1,350,147,1,3,6,0,111,2,0,0
5222,1,2,3,387,1,492,148,1,3,6,0,111,2,0,0
5222,1,1,1,535,1,388,149,1,3,6,0,111,2,0,0
5222,1,2,4,402,1,509,151,1,3,6,0,111,2,0,0
5222,1,1,1,339,1,343,152,1,3,6,0,111,2,0,0
5222,1,2,3,473,0,325,157,2,3,6,0,111,2,0,0
5222,1,2,4,472,0,397,158,2,3,6,0,100,2,0,0
5222,1,1,1,352,1,559,159,1,3,6,0,100,2,0,0
5222,1,1,2,451,1,332,163,1,3,6,0,111,2,0,0
5222,1,1,1,554,1,300,166,1,3,6,0,111,2,0,0
5222,1,1,1,487,1,245,168,1,3,6,0,111,2,0,0
5222,1,2,4,541,0,234,172,2,3,6,0,100,2,0,0
5222,1,2,3,354,0,371,175,2,3,6,0,111,2,0,0
5222,1,1,1,599,1,257,176,1,3,6,0,100,2,0,0
5222,1,1,1,464,1,300,179,1,2,7,0,100,2,0,0
5222,1,2,4,528,1,588,182,1,2,7,0,100,2,0,0
5222,1,1,1,456,1,320,183,1,2,7,0,111,2,0,0
5222,1,2,3,578,1,428,187,1,2,7,0,111,2,0,0
5222,1,1,2,493,1,328,188,1,2,7,0,111,2,0,0
5222,1,2,4,575,0,352,191,2,2,7,0,100,2,0,0
5222,1,2,4,563,1,317,192,1,2,7,0,100,2,0,0
5222,1,1,2,545,1,351,193,1,2,7,0,111,2,0,0
5222,1,2,4,554,0,529,195,2,2,7,0,100,2,0,0
5222,1,1,2,327,1,500,201,1,2,7,0,100,2,0,0
5222,1,2,3,347,1,566,203,1,2,7,0,111,2,0,0
5222,1,1,1,476,1,427,204,1,2,7,0,111,2,0,0
5222,1,1,1,429,0,537,206,2,2,7,0,100,2,0,0
5222,1,1,1,443,1,409,211,1,4,8,0,111,2,0,0
5222,1,2,4,310,1,486,215,1,4,8,0,111,2,0,0
5222,1,2,3,427,1,598,216,1,4,8,0,111,2,0,0
5222,1,1,1,442,1,429,217,1,4,8,0,111,2,0,0
5222,1,1,2,318,1,554,219,1,4,8,0,100,2,0,0
5222,1,2,3,430,1,480,223,1,4,8,0,111,2,0,0
5222,1,2,4,523,1,437,224,1,4,8,0,111,2,0,0
5222,1,1,1,428,1,481,225,1,4,8,0,111,2,0,0
5222,1,2,3,441,1,568,228,1,4,8,0,111,2,0,0
5222,1,2,3,465,0,369,229,2,4,8,0,111,2,0,0
5222,1,2,3,370,1,658,230,1,4,8,0,100,2,0,0
5222,1,1,2,522,1,436,231,1,4,8,0,111,2,0,0
5222,1,2,4,337,1,536,234,1,4,8,0,111,2,0,0
5222,1,1,1,567,1,320,235,1,4,8,0,111,2,0,0
5222,1,2,3,357,1,454,237,1,4,8,0,111,2,0,0
5222,1,1,2,563,1,350,238,1,4,8,0,111,2,0,0
5222,1,2,3,467,0,282,245,2,3,9,0,111,2,0,0
5222,1,2,3,515,1,601,246,1,3,9,0,100,2,0,0
5222,1,2,4,420,1,637,247,1,3,9,0,111,2,0,0
5222,1,1,2,410,1,419,248,1,3,9,0,111,2,0,0
5222,1,1,1,574,1,436,250,1,3,9,0,111,2,0,0
5222,1,1,1,386,1,428,253,1,3,9,0,111,2,0,0
5222,1,2,3,302,1,525,255,1,3,9,0,111,2,0,0
5222,1,1,1,398,0,333,256,2,3,9,0,111,2,0,0
5222,1,1,2,304,1,497,258,1,3,9,0,111,2,0,0
5222,1,1,1,591,1,553,260,1,3,9,0,111,2,0,0
5222,1,1,1,402,1,405,264,1,3,9,0,111,2,0,0
5222,1,2,3,449,1,480,266,1,3,9,0,100,2,0,0
5222,1,1,1,392,1,373,267,1,3,9,0,111,2,0,0
5222,1,2,4,596,1,559,269,1,3,9,0,111,2,0,0
5222,1,1,2,463,1,393,270,1,3,9,0,111,2,0,0
5222,1,1,2,600,1,329,272,1,3,9,0,111,2,0,0
5222,1,2,4,592,1,407,275,1,3,10,0,100,2,0,0
5222,1,2,4,306,1,449,276,1,3,10,0,111,2,0,0
5222,1,1,1,432,1,431,277,1,3,10,0,111,2,0,0
5222,1,1,2,551,1,281,280,1,3,10,0,111,2,0,0
5222,1,2,3,491,1,394,283,1,3,10,0,100,2,0,0
5222,1,1,1,398,1,407,284,1,3,10,0,111,2,0,0
5222,1,2,4,588,1,513,286,1,3,10,0,100,2,0,0
5222,1,1,1,591,1,364,287,1,3,10,0,111,2,0,0
5222,1,1,2,307,1,442,291,1,3,10,0,111,2,0,0
5222,1,2,3,438,1,630,293,1,3,10,0,111,2,0,0
5222,1,1,2,460,1,359,294,1,3,10,0,111,2,0,0
5222,1,1,1,401,1,524,296,1,3,10,0,100,2,0,0
5222,1,1,2,506,1,485,298,1,3,10,0,111,2,0,0
5222,1,2,3,472,1,620,300,1,3,10,0,111,2,0,0
5222,1,2,3,441,0,351,301,2,3,10,0,111,2,0,0
5222,1,1,1,591,1,468,302,1,3,10,0,100,2,0,0
5222,1,2,4,318,1,505,306,1,2,11,0,100,2,0,0
5222,1,2,4,317,1,377,307,1,2,11,0,111,2,0,0
5222,1,1,1,363,1,594,308,1,2,11,0,111,2,0,0
5222,1,1,1,309,1,483,311,1,2,11,0,111,2,0,0
5222,1,2,4,555,0,352,313,2,2,11,0,100,2,0,0
5222,1,1,1,559,1,521,314,1,2,11,0,100,2,0,0
5222,1,2,4,359,1,487,317,1,2,11,0,111,2,0,0
5222,1,1,2,391,0,475,318,2,2,11,0,111,2,0,0
5222,1,1,1,303,0,646,322,2,2,11,0,100,2,0,0
5222,1,2,4,528,1,441,325,1,2,11,0,111,2,0,0
5222,1,2,3,388,1,489,326,1,2,11,0,111,2,0,0
5222,1,2,4,445,1,397,327,1,2,11,0,111,2,0,0
5222,1,2,3,569,1,429,328,1,2,11,0,111,2,0,0
5222,1,1,2,447,1,395,329,1,2,11,0,111,2,0,0
5222,1,2,4,427,1,487,336,1,2,11,0,111,2,0,0
5222,1,1,2,433,1,464,341,1,2,12,0,111,2,0,0
5222,1,1,2,411,1,413,343,1,2,12,0,111,2,0,0
5222,1,2,4,322,1,647,345,1,2,12,0,111,2,0,0
5222,1,2,4,540,1,482,346,1,2,12,0,111,2,0,0
5222,1,1,2,379,1,621,347,1,2,12,0,111,2,0,0
5222,1,2,3,326,1,582,349,1,2,12,0,111,2,0,0
5222,1,1,2,587,1,364,350,1,2,12,0,111,2,0,0
5222,1,1,1,451,1,488,352,1,2,12,0,111,2,0,0
5222,1,2,3,534,1,573,356,1,2,12,0,100,2,0,0
5222,1,2,3,526,1,440,357,1,2,12,0,111,2,0,0
5222,1,1,1,463,1,402,358,1,2,12,0,111,2,0,0
5222,1,2,4,542,1,419,361,1,2,12,0,111,2,0,0
5222,1,1,1,511,1,476,362,1,2,12,0,111,2,0,0
5222,1,1,2,312,1,593,364,1,2,12,0,111,2,0,0
5222,1,1,2,462,1,483,366,1,2,12,0,111,2,0,0
5223,1,1,2,474,1,594,19,1,1,2,0,111,2,0,0
5223,1,1,2,309,1,1102,23,1,1,2,0,100,2,0,0
5223,1,2,4,321,1,673,25,1,1,2,0,111,2,0,0
5223,1,2,4,391,1,672,26,1,1,2,0,111,2,0,0
5223,1,2,4,491,1,670,27,1,1,2,0,111,2,0,0
5223,1,1,2,336,1,731,30,1,1,2,0,111,2,0,0
5223,1,1,2,450,1,560,36,1,1,2,0,111,2,0,0
5223,1,1,2,550,1,1455,40,1,1,2,0,111,2,0,0
5223,1,2,3,535,1,666,42,1,1,2,0,111,2,0,0
5223,1,2,4,430,1,1111,43,1,1,2,0,111,2,0,0
5223,1,1,1,407,1,1316,44,1,1,2,0,111,2,0,0
5223,1,2,3,536,1,1197,46,1,1,2,0,111,2,0,0
5223,1,1,1,522,1,1279,47,1,1,2,0,111,2,0,0
5223,1,2,3,362,0,802,53,2,3,3,0,111,2,0,0
5223,1,2,3,343,1,650,54,1,3,3,0,100,2,0,0
5223,1,1,1,413,1,648,55,1,3,3,0,111,2,0,0
5223,1,1,1,442,1,453,57,1,3,3,0,111,2,0,0
5223,1,2,4,365,1,781,59,1,3,3,0,111,2,0,0
5223,1,2,4,593,0,392,60,2,3,3,0,111,2,0,0
5223,1,1,2,563,1,685,61,1,3,3,0,100,2,0,0
5223,1,1,1,445,1,537,63,1,3,3,0,111,2,0,0
5223,1,2,3,525,0,626,69,2,3,3,0,100,2,0,0
5223,1,2,4,407,1,846,70,1,3,3,0,100,2,0,0
5223,1,2,4,479,0,863,75,2,3,3,0,100,2,0,0
5223,1,2,3,308,0,782,76,2,3,3,0,100,2,0,0
5223,1,1,2,363,1,834,77,1,3,3,0,100,2,0,0
5223,1,1,1,554,1,516,80,1,3,3,0,111,2,0,0
5223,1,2,3,585,0,494,85,2,2,4,0,111,2,0,0
5223,1,1,2,419,0,518,86,2,2,4,0,100,2,0,0
5223,1,2,4,433,1,602,89,1,2,4,0,111,2,0,0
5223,1,1,1,365,1,672,90,1,2,4,0,111,2,0,0
5223,1,2,4,461,0,719,92,2,2,4,0,100,2,0,0
5223,1,2,3,414,1,761,93,1,2,4,0,100,2,0,0
5223,1,1,1,588,1,916,94,1,2,4,0,111,2,0,0
5223,1,1,2,324,1,672,96,1,2,4,0,111,2,0,0
5223,1,1,2,436,1,861,99,1,2,4,0,100,2,0,0
5223,1,2,4,321,0,1049,101,2,2,4,0,111,2,0,0
5223,1,2,3,409,1,802,102,1,2,4,0,100,2,0,0
5223,1,2,3,527,1,603,103,1,2,4,0,111,2,0,0
5223,1,2,4,566,0,829,104,2,2,4,0,111,2,0,0
5223,1,2,4,318,1,921,105,1,2,4,0,100,2,0,0
5223,1,1,1,320,1,648,106,1,2,4,0,111,2,0,0
5223,1,1,1,496,1,666,108,1,2,4,0,100,2,0,0
5223,1,1,1,309,1,527,114,1,2,5,0,111,2,0,0
5223,1,2,4,482,1,748,118,1,2,5,0,111,2,0,0
5223,1,2,3,379,0,731,119,2,2,5,0,111,2,0,0
5223,1,2,4,357,0,459,120,2,2,5,0,100,2,0,0
5223,1,1,2,367,1,615,121,1,2,5,0,100,2,0,0
5223,1,1,2,494,1,651,124,1,2,5,0,100,2,0,0
5223,1,2,4,304,0,668,126,2,2,5,0,100,2,0,0
5223,1,1,1,598,1,601,127,1,2,5,0,100,2,0,0
5223,1,2,3,419,1,646,130,1,2,5,0,111,2,0,0
5223,1,2,4,342,1,455,131,1,2,5,0,111,2,0,0
5223,1,2,4,422,1,659,132,1,2,5,0,111,2,0,0
5223,1,1,1,325,1,743,133,1,2,5,0,111,2,0,0
5223,1,1,2,399,1,430,137,1,2,5,0,100,2,0,0
5223,1,2,3,412,0,908,140,2,2,5,0,100,2,0,0
5223,1,1,2,519,1,738,141,1,2,5,0,100,2,0,0
5223,1,1,1,594,1,538,144,1,2,5,0,100,2,0,0
5223,1,2,4,466,1,680,147,1,4,6,0,100,2,0,0
5223,1,1,2,407,1,585,148,1,4,6,0,111,2,0,0
5223,1,1,1,526,1,588,151,1,4,6,0,100,2,0,0
5223,1,2,3,550,0,377,153,2,4,6,0,100,2,0,0
5223,1,1,2,475,0,507,154,2,4,6,0,100,2,0,0
5223,1,1,2,334,1,458,157,1,4,6,0,100,2,0,0
5223,1,2,3,488,0,445,160,2,4,6,0,100,2,0,0
5223,1,2,4,371,0,412,161,2,4,6,0,100,2,0,0
5223,1,2,4,558,1,268,162,1,4,6,0,100,2,0,0
5223,1,2,3,456,1,466,163,1,4,6,0,111,2,0,0
5223,1,1,1,492,0,553,164,2,4,6,0,111,2,0,0
5223,1,2,4,554,0,878,167,2,4,6,0,111,2,0,0
5223,1,2,3,563,0,706,168,2,4,6,0,100,2,0,0
5223,1,1,1,547,1,589,169,1,4,6,0,100,2,0,0
5223,1,2,4,525,0,1000,172,2,4,6,0,111,2,0,0
5223,1,1,2,301,1,667,173,1,4,6,0,100,2,0,0
5223,1,1,1,587,1,391,178,1,4,7,0,100,2,0,0
5223,1,2,3,317,0,755,180,2,4,7,0,100,2,0,0
5223,1,1,2,414,1,546,181,1,4,7,0,100,2,0,0
5223,1,1,1,572,1,457,185,1,4,7,0,111,2,0,0
5223,1,2,4,322,0,619,187,2,4,7,0,100,2,0,0
5223,1,1,2,316,1,569,188,1,4,7,0,100,2,0,0
5223,1,2,3,459,0,578,191,2,4,7,0,111,2,0,0
5223,1,1,1,314,1,626,192,1,4,7,0,100,2,0,0
5223,1,2,3,429,0,759,194,2,4,7,0,111,2,0,0
5223,1,2,4,354,0,443,195,2,4,7,0,100,2,0,0
5223,1,1,1,367,0,655,196,2,4,7,0,100,2,0,0
5223,1,1,2,457,0,439,204,2,4,7,0,100,2,0,0
5223,1,2,4,386,0,857,206,2,4,7,0,100,2,0,0
5223,1,2,3,599,0,432,207,2,4,7,0,100,2,0,0
5223,1,2,3,549,0,552,208,2,4,7,0,100,2,0,0
5223,1,2,3,381,0,445,212,2,4,8,0,100,2,0,0
5223,1,1,1,306,1,548,213,1,4,8,0,100,2,0,0
5223,1,1,2,472,1,709,217,1,4,8,0,111,2,0,0
5223,1,2,3,317,0,495,220,2,4,8,0,100,2,0,0
5223,1,2,3,484,1,460,221,1,4,8,0,100,2,0,0
5223,1,2,3,582,1,435,222,1,4,8,0,111,2,0,0
5223,1,1,1,599,0,567,223,2,4,8,0,111,2,0,0
5223,1,1,1,317,1,460,225,1,4,8,0,111,2,0,0
5223,1,1,2,597,1,597,227,1,4,8,0,100,2,0,0
5223,1,2,4,555,0,648,229,2,4,8,0,111,2,0,0
5223,1,1,1,471,0,559,230,2,4,8,0,100,2,0,0
5223,1,2,4,519,0,811,232,2,4,8,0,100,2,0,0
5223,1,2,3,417,0,598,233,2,4,8,0,100,2,0,0
5223,1,2,3,433,1,485,234,1,4,8,0,100,2,0,0
5223,1,1,2,569,1,661,235,1,4,8,0,111,2,0,0
5223,1,1,1,386,0,480,239,2,4,8,0,100,2,0,0
5223,1,1,1,575,1,477,243,1,4,9,0,100,2,0,0
5223,1,1,2,533,1,640,245,1,4,9,0,100,2,0,0
5223,1,2,3,557,0,551,248,2,4,9,0,100,2,0,0
5223,1,1,2,529,0,684,249,2,4,9,0,100,2,0,0
5223,1,2,4,326,0,652,251,2,4,9,0,111,2,0,0
5223,1,1,2,355,1,791,252,1,4,9,0,100,2,0,0
5223,1,2,3,495,1,566,254,1,4,9,0,100,2,0,0
5223,1,1,1,549,1,625,255,1,4,9,0,111,2,0,0
5223,1,2,4,303,0,675,258,2,4,9,0,100,2,0,0
5223,1,2,3,353,0,531,259,2,4,9,0,100,2,0,0
5223,1,1,1,386,1,329,260,1,4,9,0,100,2,0,0
5223,1,1,1,487,1,435,265,1,4,9,0,100,2,0,0
5223,1,2,3,574,1,494,267,1,4,9,0,100,2,0,0
5223,1,1,2,373,1,588,268,1,4,9,0,111,2,0,0
5223,1,1,2,580,1,411,274,1,4,10,0,100,2,0,0
5223,1,1,1,475,1,560,277,1,4,10,0,100,2,0,0
5223,1,1,2,432,1,690,279,1,4,10,0,100,2,0,0
5223,1,2,3,520,1,511,282,1,4,10,0,111,2,0,0
5223,1,1,1,550,0,629,283,2,4,10,0,111,2,0,0
5223,1,2,4,432,0,608,285,2,4,10,0,111,2,0,0
5223,1,1,2,428,1,729,286,1,4,10,0,100,2,0,0
5223,1,1,1,569,1,503,288,1,4,10,0,100,2,0,0
5223,1,1,1,573,1,438,290,1,4,10,0,100,2,0,0
5223,1,1,2,462,1,658,293,1,4,10,0,100,2,0,0
5223,1,1,1,527,0,464,295,2,4,10,0,100,2,0,0
5223,1,2,3,345,0,808,297,2,4,10,0,100,2,0,0
5223,1,1,2,336,1,704,298,1,4,10,0,100,2,0,0
5223,1,2,3,576,0,671,302,2,4,10,0,100,2,0,0
5223,1,1,2,506,1,857,303,1,4,10,0,100,2,0,0
5223,1,2,4,452,0,1113,309,2,4,11,0,111,2,0,0
5223,1,2,3,505,0,1140,310,2,4,11,0,100,2,0,0
5223,1,2,4,436,1,1071,311,1,4,11,0,100,2,0,0
5223,1,1,1,511,1,768,312,1,4,11,0,111,2,0,0
5223,1,1,2,406,1,672,317,1,4,11,0,111,2,0,0
5223,1,2,3,335,1,822,319,1,4,11,0,111,2,0,0
5223,1,2,4,407,1,939,320,1,4,11,0,111,2,0,0
5223,1,1,2,511,1,722,321,1,4,11,0,111,2,0,0
5223,1,1,2,314,1,803,323,1,4,11,0,100,2,0,0
5223,1,1,1,319,0,637,328,2,4,11,0,111,2,0,0
5223,1,2,4,558,1,667,330,1,4,11,0,111,2,0,0
5223,1,1,1,501,1,875,331,1,4,11,0,111,2,0,0
5223,1,1,1,450,1,508,333,1,4,11,0,111,2,0,0
5223,1,2,3,372,1,1052,335,1,4,11,0,111,2,0,0
5223,1,2,3,522,1,864,336,1,4,11,0,111,2,0,0
5223,1,1,1,530,1,727,338,1,2,12,0,111,2,0,0
5223,1,2,3,326,1,578,341,1,2,12,0,111,2,0,0
5223,1,2,4,415,0,1378,342,2,2,12,0,111,2,0,0
5223,1,1,1,373,1,670,343,1,2,12,0,100,2,0,0
5223,1,2,3,390,1,1174,346,1,2,12,0,100,2,0,0
5223,1,1,1,582,1,526,347,1,2,12,0,111,2,0,0
5223,1,2,3,408,1,1172,355,1,2,12,0,100,2,0,0
5223,1,1,1,388,1,562,356,1,2,12,0,111,2,0,0
5223,1,2,3,314,1,845,358,1,2,12,0,111,2,0,0
5223,1,2,4,580,1,1014,359,1,2,12,0,111,2,0,0
5223,1,1,2,594,1,695,362,1,2,12,0,100,2,0,0
5223,1,1,2,478,1,607,364,1,2,12,0,100,2,0,0
5223,1,1,1,404,1,583,367,1,2,12,0,100,2,0,0
5225,1,2,3,385,1,775,19,1,1,2,0,100,2,0,0
5225,1,2,4,490,1,486,20,1,1,2,0,111,2,0,0
5225,1,2,4,503,1,610,21,1,1,2,0,111,2,0,0
5225,1,2,4,430,1,485,22,1,1,2,0,111,2,0,0
5225,1,1,2,499,1,491,23,1,1,2,0,111,2,0,0
5225,1,1,1,586,1,257,28,1,1,2,0,111,2,0,0
5225,1,2,4,581,1,550,31,1,1,2,0,100,2,0,0
5225,1,1,2,388,0,290,32,2,1,2,0,111,2,0,0
5225,1,1,1,379,1,521,34,1,1,2,0,111,2,0,0
5225,1,2,4,519,1,579,38,1,1,2,0,111,2,0,0
5225,1,1,2,458,1,472,39,1,1,2,0,111,2,0,0
5225,1,1,1,484,1,418,41,1,1,2,0,111,2,0,0
5225,1,1,1,409,1,486,43,1,1,2,0,111,2,0,0
5225,1,1,2,383,1,402,45,1,1,2,0,111,2,0,0
5225,1,2,3,592,1,517,48,1,1,2,0,111,2,0,0
5225,1,2,4,367,1,450,50,1,3,3,0,111,2,0,0
5225,1,1,2,472,1,493,51,1,3,3,0,111,2,0,0
5225,1,2,4,591,1,439,53,1,3,3,0,111,2,0,0
5225,1,2,4,568,0,322,54,2,3,3,0,111,2,0,0
5225,1,1,1,350,1,477,55,1,3,3,0,100,2,0,0
5225,1,1,2,541,1,302,58,1,3,3,0,111,2,0,0
5225,1,1,2,322,1,426,61,1,3,3,0,100,2,0,0
5225,1,1,1,311,1,365,65,1,3,3,0,111,2,0,0
5225,1,2,4,366,1,435,70,1,3,3,0,111,2,0,0
5225,1,1,2,329,1,309,71,1,3,3,0,111,2,0,0
5225,1,2,4,580,0,371,75,2,3,3,0,100,2,0,0
5225,1,1,1,402,1,535,76,1,3,3,0,100,2,0,0
5225,1,1,1,600,1,414,80,1,3,3,0,100,2,0,0
5225,1,2,4,319,1,462,82,1,4,4,0,111,2,0,0
5225,1,1,1,402,1,503,83,1,4,4,0,111,2,0,0
5225,1,1,2,340,1,413,87,1,4,4,0,111,2,0,0
5225,1,2,3,426,1,423,90,1,4,4,0,111,2,0,0
5225,1,1,2,370,0,454,91,2,4,4,0,111,2,0,0
5225,1,1,2,300,1,443,94,1,4,4,0,111,2,0,0
5225,1,2,4,480,1,431,96,1,4,4,0,111,2,0,0
5225,1,1,1,542,1,404,97,1,4,4,0,111,2,0,0
5225,1,1,2,391,1,499,99,1,4,4,0,111,2,0,0
5225,1,2,4,543,0,367,102,2,4,4,0,111,2,0,0
5225,1,2,4,473,1,1226,103,1,4,4,0,100,2,0,0
5225,1,2,3,414,1,511,104,1,4,4,0,111,2,0,0
5225,1,1,2,541,1,488,105,1,4,4,0,111,2,0,0
5225,1,2,3,434,0,390,107,2,4,4,0,111,2,0,0
5225,1,1,2,355,1,456,108,1,4,4,0,100,2,0,0
5225,1,1,1,509,0,299,110,2,4,4,0,111,2,0,0
5225,1,2,4,587,1,568,115,1,2,5,0,111,2,0,0
5225,1,1,1,568,1,403,116,1,2,5,0,111,2,0,0
5225,1,2,4,521,1,469,119,1,2,5,0,100,2,0,0
5225,1,2,4,503,0,375,120,2,2,5,0,111,2,0,0
5225,1,1,2,326,1,791,121,1,2,5,0,100,2,0,0
5225,1,1,2,516,1,523,124,1,2,5,0,100,2,0,0
5225,1,1,2,399,1,540,127,1,2,5,0,111,2,0,0
5225,1,1,1,450,1,582,129,1,2,5,0,111,2,0,0
5225,1,1,2,471,1,514,131,1,2,5,0,111,2,0,0
5225,1,1,1,395,1,446,133,1,2,5,0,111,2,0,0
5225,1,1,2,447,1,399,135,1,2,5,0,100,2,0,0
5225,1,2,3,414,1,536,137,1,2,5,0,111,2,0,0
5225,1,2,3,504,1,1087,138,1,2,5,0,111,2,0,0
5225,1,2,4,324,1,522,139,1,2,5,0,111,2,0,0
5225,1,1,2,600,1,454,140,1,2,5,0,111,2,0,0
5225,1,1,1,316,1,539,142,1,2,5,0,111,2,0,0
5225,1,1,2,518,1,366,146,1,2,6,0,111,2,0,0
5225,1,2,3,370,1,439,149,1,2,6,0,111,2,0,0
5225,1,1,1,330,1,423,150,1,2,6,0,111,2,0,0
5225,1,1,2,503,1,511,155,1,2,6,0,111,2,0,0
5225,1,1,1,530,1,447,157,1,2,6,0,100,2,0,0
5225,1,2,4,519,0,366,159,2,2,6,0,111,2,0,0
5225,1,2,4,475,1,1423,160,1,2,6,0,100,2,0,0
5225,1,1,2,476,1,623,161,1,2,6,0,111,2,0,0
5225,1,1,2,597,1,480,163,1,2,6,0,100,2,0,0
5225,1,1,1,557,1,556,167,1,2,6,0,111,2,0,0
5225,1,2,3,562,1,427,170,1,2,6,0,111,2,0,0
5225,1,2,4,495,1,389,171,1,2,6,0,111,2,0,0
5225,1,1,1,308,1,512,172,1,2,6,0,111,2,0,0
5225,1,2,4,531,0,300,174,2,2,6,0,111,2,0,0
5225,1,1,2,373,1,614,175,1,2,6,0,100,2,0,0
5225,1,2,4,403,1,336,178,1,2,7,0,111,2,0,0
5225,1,2,3,573,1,297,179,1,2,7,0,111,2,0,0
5225,1,2,4,465,1,456,180,1,2,7,0,111,2,0,0
5225,1,2,3,588,1,442,181,1,2,7,0,111,2,0,0
5225,1,1,2,516,0,290,182,2,2,7,0,111,2,0,0
5225,1,1,1,486,1,399,190,1,2,7,0,100,2,0,0
5225,1,2,4,477,1,671,192,1,2,7,0,111,2,0,0
5225,1,2,4,376,1,564,193,1,2,7,0,111,2,0,0
5225,1,1,1,491,1,374,194,1,2,7,0,111,2,0,0
5225,1,1,2,433,1,504,196,1,2,7,0,111,2,0,0
5225,1,2,3,355,1,290,198,1,2,7,0,111,2,0,0
5225,1,1,2,312,1,484,199,1,2,7,0,111,2,0,0
5225,1,2,4,393,1,417,203,1,2,7,0,111,2,0,0
5225,1,1,2,405,0,287,204,2,2,7,0,111,2,0,0
5225,1,1,1,364,1,419,210,1,2,8,0,111,2,0,0
5225,1,1,1,595,1,807,213,1,2,8,0,100,2,0,0
5225,1,2,4,382,1,501,218,1,2,8,0,100,2,0,0
5225,1,2,4,373,0,318,219,2,2,8,0,111,2,0,0
5225,1,2,4,379,1,420,224,1,2,8,0,111,2,0,0
5225,1,2,4,552,0,304,225,2,2,8,0,111,2,0,0
5225,1,1,2,383,1,476,226,1,2,8,0,100,2,0,0
5225,1,2,3,541,1,675,232,1,2,8,0,111,2,0,0
5225,1,1,2,320,1,384,233,1,2,8,0,111,2,0,0
5225,1,1,1,502,1,457,235,1,2,8,0,100,2,0,0
5225,1,2,4,518,1,513,237,1,2,8,0,111,2,0,0
5225,1,2,4,470,0,398,238,2,2,8,0,111,2,0,0
5225,1,1,2,359,1,547,239,1,2,8,0,100,2,0,0
5225,1,1,2,304,1,454,243,1,2,9,0,111,2,0,0
5225,1,2,3,391,1,484,245,1,2,9,0,111,2,0,0
5225,1,2,4,435,1,472,246,1,2,9,0,111,2,0,0
5225,1,2,4,411,1,477,247,1,2,9,0,111,2,0,0
5225,1,1,2,403,1,383,248,1,2,9,0,111,2,0,0
5225,1,1,1,499,1,447,250,1,2,9,0,111,2,0,0
5225,1,1,1,433,1,627,255,1,2,9,0,100,2,0,0
5225,1,2,3,331,1,783,257,1,2,9,0,100,2,0,0
5225,1,2,4,531,1,437,258,1,2,9,0,111,2,0,0
5225,1,1,1,456,1,482,259,1,2,9,0,111,2,0,0
5225,1,2,4,585,1,494,262,1,2,9,0,111,2,0,0
5225,1,2,4,540,1,466,263,1,2,9,0,111,2,0,0
5225,1,2,3,405,1,620,264,1,2,9,0,111,2,0,0
5225,1,1,2,553,1,342,265,1,2,9,0,111,2,0,0
5225,1,1,1,399,1,518,269,1,2,9,0,111,2,0,0
5225,1,1,2,318,1,500,272,1,2,9,0,111,2,0,0
5225,1,1,2,493,1,438,274,1,2,10,0,100,2,0,0
5225,1,2,4,383,1,660,276,1,2,10,0,111,2,0,0
5225,1,1,2,398,1,527,277,1,2,10,0,111,2,0,0
5225,1,1,2,448,1,531,279,1,2,10,0,100,2,0,0
5225,1,2,3,384,1,529,286,1,2,10,0,111,2,0,0
5225,1,2,3,309,1,574,287,1,2,10,0,111,2,0,0
5225,1,2,3,519,1,657,288,1,2,10,0,111,2,0,0
5225,1,1,2,391,1,466,289,1,2,10,0,111,2,0,0
5225,1,2,4,362,1,484,295,1,2,10,0,111,2,0,0
5225,1,2,3,423,1,613,296,1,2,10,0,111,2,0,0
5225,1,2,4,343,1,551,297,1,2,10,0,111,2,0,0
5225,1,1,2,401,1,545,298,1,2,10,0,111,2,0,0
5225,1,1,1,506,1,789,301,1,2,10,0,111,2,0,0
5225,1,2,3,515,1,529,303,1,2,10,0,111,2,0,0
5225,1,2,3,455,1,494,304,1,2,10,0,111,2,0,0
5225,1,2,3,402,1,448,307,1,3,11,0,100,2,0,0
5225,1,2,4,348,0,390,308,2,3,11,0,111,2,0,0
5225,1,1,2,543,1,434,309,1,3,11,0,100,2,0,0
5225,1,1,1,535,0,344,311,2,3,11,0,111,2,0,0
5225,1,2,3,600,1,438,314,1,3,11,0,111,2,0,0
5225,1,1,2,502,0,238,315,2,3,11,0,111,2,0,0
5225,1,2,4,544,1,417,318,1,3,11,0,111,2,0,0
5225,1,1,2,337,1,467,319,1,3,11,0,111,2,0,0
5225,1,1,1,462,1,490,322,1,3,11,0,111,2,0,0
5225,1,1,2,534,1,479,326,1,3,11,0,111,2,0,0
5225,1,1,2,502,0,295,329,2,3,11,0,111,2,0,0
5225,1,2,3,428,1,449,332,1,3,11,0,111,2,0,0
5225,1,1,2,441,1,381,333,1,3,11,0,111,2,0,0
5225,1,2,3,398,1,637,335,1,3,11,0,111,2,0,0
5225,1,2,3,479,0,342,336,2,3,11,0,111,2,0,0
5225,1,2,3,343,1,468,338,1,2,12,0,111,2,0,0
5225,1,1,2,440,1,410,339,1,2,12,0,111,2,0,0
5225,1,1,2,577,1,587,342,1,2,12,0,100,2,0,0
5225,1,1,1,496,1,409,344,1,2,12,0,111,2,0,0
5225,1,1,1,387,1,425,346,1,2,12,0,111,2,0,0
5225,1,1,2,413,1,523,349,1,2,12,0,111,2,0,0
5225,1,2,4,547,1,528,352,1,2,12,0,111,2,0,0
5225,1,1,2,430,0,357,353,2,2,12,0,111,2,0,0
5225,1,1,2,464,1,428,357,1,2,12,0,111,2,0,0
5225,1,2,3,474,1,555,359,1,2,12,0,100,2,0,0
5225,1,1,1,493,1,602,360,1,2,12,0,111,2,0,0
5225,1,1,1,442,1,264,362,1,2,12,0,111,2,0,0
5225,1,1,2,558,1,332,364,1,2,12,0,100,2,0,0
5227,1,2,4,324,0,1462,22,2,1,2,0,111,2,0,0
5227,1,1,2,571,1,897,32,1,1,2,0,111,2,0,0
5227,1,2,4,490,1,938,35,1,1,2,0,111,2,0,0
5227,1,2,4,508,1,825,36,1,1,2,0,111,2,0,0
5227,1,1,2,445,1,844,56,1,4,3,0,111,2,0,0
5227,1,2,4,470,1,857,60,1,4,3,0,111,2,0,0
5227,1,1,2,438,1,939,70,1,4,3,0,111,2,0,0
5227,1,1,1,330,1,641,75,1,4,3,0,111,2,0,0
5227,1,2,3,569,1,922,83,1,4,4,0,111,2,0,0
5227,1,1,2,341,1,660,84,1,4,4,0,111,2,0,0
5227,1,2,4,504,1,836,89,1,4,4,0,111,2,0,0
5227,1,2,4,555,0,1273,90,2,4,4,0,111,2,0,0
5227,1,1,1,594,1,634,91,1,4,4,0,100,2,0,0
5227,1,1,1,537,1,813,97,1,4,4,0,111,2,0,0
5227,1,2,4,566,0,1115,100,2,4,4,0,100,2,0,0
5227,1,2,3,455,0,1101,104,2,4,4,0,111,2,0,0
5227,1,1,2,331,1,913,105,1,4,4,0,100,2,0,0
5227,1,2,4,304,0,778,115,2,4,5,0,100,2,0,0
5227,1,1,1,326,1,712,116,1,4,5,0,100,2,0,0
5227,1,1,2,363,1,853,120,1,4,5,0,100,2,0,0
5227,1,2,4,467,0,751,122,2,4,5,0,111,2,0,0
5227,1,2,3,319,1,969,123,1,4,5,0,100,2,0,0
5227,1,1,2,301,1,706,124,1,4,5,0,111,2,0,0
5227,1,2,3,518,1,650,126,1,4,5,0,111,2,0,0
5227,1,1,2,553,1,864,144,1,4,5,0,100,2,0,0
5227,1,1,1,428,1,578,146,1,4,6,0,111,2,0,0
5227,1,1,1,598,1,568,150,1,4,6,0,111,2,0,0
5227,1,1,2,468,1,661,152,1,4,6,0,111,2,0,0
5227,1,1,2,484,1,790,154,1,4,6,0,111,2,0,0
5227,1,1,1,588,1,675,157,1,4,6,0,111,2,0,0
5227,1,1,2,461,0,1217,159,2,4,6,0,111,2,0,0
5227,1,2,4,556,0,1018,162,2,4,6,0,111,2,0,0
5227,1,1,1,458,1,750,163,1,4,6,0,100,2,0,0
5227,1,1,1,407,1,1367,176,1,4,6,0,111,2,0,0
5227,1,2,4,543,0,734,179,2,4,7,0,111,2,0,0
5227,1,2,4,518,0,860,180,2,4,7,0,100,2,0,0
5227,1,2,4,559,1,1036,181,1,4,7,0,100,2,0,0
5227,1,1,1,348,1,835,197,1,4,7,0,111,2,0,0
5227,1,1,2,567,1,770,201,1,4,7,0,100,2,0,0
5227,1,1,1,543,1,1358,204,1,4,7,0,100,2,0,0
5227,1,1,1,346,1,603,210,1,4,8,0,111,2,0,0
5227,1,2,3,512,1,860,220,1,4,8,0,111,2,0,0
5227,1,1,1,382,1,759,221,1,4,8,0,111,2,0,0
5227,1,2,4,433,1,900,223,1,4,8,0,111,2,0,0
5227,1,1,2,360,1,734,224,1,4,8,0,111,2,0,0
5227,1,1,1,479,1,757,230,1,4,8,0,111,2,0,0
5227,1,1,1,514,1,831,232,1,4,8,0,111,2,0,0
5227,1,1,1,485,1,784,234,1,4,8,0,111,2,0,0
5227,1,1,2,546,1,649,238,1,4,8,0,111,2,0,0
5227,1,2,4,356,1,779,243,1,2,9,0,111,2,0,0
5227,1,1,2,491,1,723,244,1,2,9,0,111,2,0,0
5227,1,1,2,468,1,750,246,1,2,9,0,111,2,0,0
