"subject","session","congruency","trialType","ITI","accuracy","rt","trialNum","respType","feedType","blockNum"
5184,1,1,1,421,1,499,17,1,1,2
5184,1,1,1,408,1,432,18,1,1,2
5184,1,1,2,439,0,387,19,2,1,2
5184,1,2,3,435,0,695,20,2,1,2
5184,1,1,1,307,1,466,21,1,1,2
5184,1,2,4,569,0,0,22,3,1,2
5184,1,1,2,349,1,345,23,1,1,2
5184,1,2,4,415,0,429,24,2,1,2
5184,1,2,3,546,0,0,25,3,1,2
5184,1,2,4,365,0,411,26,2,1,2
5184,1,1,2,567,1,537,27,1,1,2
5184,1,1,2,352,1,569,28,1,1,2
5184,1,1,1,410,1,348,29,1,1,2
5184,1,2,4,342,0,532,30,2,1,2
5184,1,2,3,585,0,299,31,2,1,2
5184,1,2,3,361,1,387,32,1,1,2
5184,1,1,2,561,0,270,33,2,1,2
5184,1,1,1,395,1,484,34,1,1,2
5184,1,1,1,590,0,272,35,2,1,2
5184,1,2,3,502,1,341,36,1,1,2
5184,1,1,2,393,0,24,37,2,1,2
5184,1,2,4,306,0,0,38,3,1,2
5184,1,2,4,354,0,329,39,2,1,2
5184,1,2,3,375,1,760,40,1,1,2
5184,1,2,4,585,0,320,41,2,1,2
5184,1,1,1,525,1,302,42,1,1,2
5184,1,2,4,317,0,324,43,2,1,2
5184,1,2,3,501,1,354,44,1,1,2
5184,1,1,1,495,1,237,45,1,1,2
5184,1,2,3,441,0,0,46,3,1,2
5184,1,1,2,594,1,320,47,1,1,2
5184,1,1,2,525,1,321,48,1,1,2
5184,1,1,1,558,1,361,49,1,4,3
5184,1,1,1,424,1,312,50,1,4,3
5184,1,1,2,357,1,379,51,1,4,3
5184,1,2,3,414,1,240,52,1,4,3
5184,1,1,2,392,1,351,53,1,4,3
5184,1,2,4,362,0,437,54,2,4,3
5184,1,2,3,502,0,329,55,2,4,3
5184,1,1,1,350,1,341,56,1,4,3
5184,1,2,4,386,0,352,57,2,4,3
5184,1,2,4,355,0,0,58,3,4,3
5184,1,2,4,520,0,378,59,2,4,3
5184,1,1,2,523,1,410,60,1,4,3
5184,1,2,3,392,0,333,61,2,4,3
5184,1,1,1,311,0,318,62,2,4,3
5184,1,2,3,343,1,336,63,1,4,3
5184,1,1,2,455,0,231,64,2,4,3
5184,1,1,2,449,0,0,65,3,4,3
5184,1,1,2,426,1,401,66,1,4,3
5184,1,2,3,516,0,0,67,3,4,3
5184,1,1,2,327,1,358,68,1,4,3
5184,1,2,4,557,0,0,69,3,4,3
5184,1,2,4,500,0,409,70,2,4,3
5184,1,1,1,588,1,411,71,1,4,3
5184,1,1,1,590,1,362,72,1,4,3
5184,1,2,4,448,0,365,73,2,4,3
5184,1,1,1,442,1,327,74,1,4,3
5184,1,2,3,349,0,487,75,2,4,3
5184,1,2,4,466,1,322,76,1,4,3
5184,1,1,2,403,1,393,77,1,4,3
5184,1,1,1,502,1,315,78,1,4,3
5184,1,2,3,448,0,0,79,3,4,3
5184,1,2,3,330,0,404,80,2,4,3
5184,1,2,4,559,0,385,81,2,4,4
5184,1,1,2,457,1,318,82,1,4,4
5184,1,1,2,531,1,440,83,1,4,4
5184,1,2,3,519,0,424,84,2,4,4
5184,1,2,3,443,0,321,85,2,4,4
5184,1,2,4,501,0,290,86,2,4,4
5184,1,1,1,590,0,280,87,2,4,4
5184,1,2,3,544,0,415,88,2,4,4
5184,1,1,2,444,1,347,89,1,4,4
5184,1,2,3,404,1,301,90,1,4,4
5184,1,1,1,497,1,315,91,1,4,4
5184,1,1,2,334,1,439,92,1,4,4
5184,1,2,4,457,0,411,93,2,4,4
5184,1,2,4,355,0,339,94,2,4,4
5184,1,1,1,304,1,343,95,1,4,4
5184,1,1,1,346,0,116,96,2,4,4
5184,1,2,3,581,0,333,97,2,4,4
5184,1,2,3,462,0,278,98,2,4,4
5184,1,2,4,389,1,284,99,1,4,4
5184,1,1,2,457,1,289,100,1,4,4
5184,1,2,4,503,1,352,101,1,4,4
5184,1,1,2,406,0,239,102,2,4,4
5184,1,2,3,359,0,335,103,2,4,4
5184,1,2,4,437,0,0,104,3,4,4
5184,1,1,2,354,1,353,105,1,4,4
5184,1,2,4,306,1,380,106,1,4,4
5184,1,1,1,595,0,304,107,2,4,4
5184,1,1,1,406,1,432,108,1,4,4
5184,1,1,1,447,1,341,109,1,4,4
5184,1,1,2,317,0,309,110,2,4,4
5184,1,2,3,317,1,452,111,1,4,4
5184,1,1,1,558,1,335,112,1,4,4
5184,1,2,3,449,0,399,113,2,4,5
5184,1,2,3,549,0,341,114,2,4,5
5184,1,2,3,326,0,299,115,2,4,5
5184,1,1,2,432,0,225,116,2,4,5
5184,1,2,4,310,1,108,117,1,4,5
5184,1,2,3,428,0,420,118,2,4,5
5184,1,2,4,547,0,454,119,2,4,5
5184,1,1,2,305,0,302,120,2,4,5
5184,1,1,1,406,1,428,121,1,4,5
5184,1,2,4,418,0,491,122,2,4,5
5184,1,1,1,357,1,314,123,1,4,5
5184,1,1,1,334,1,348,124,1,4,5
5184,1,1,1,423,1,290,125,1,4,5
5184,1,2,4,319,0,239,126,2,4,5
5184,1,1,2,326,0,0,127,3,4,5
5184,1,1,2,469,1,347,128,1,4,5
5184,1,1,1,516,1,345,129,1,4,5
5184,1,2,4,337,0,387,130,2,4,5
5184,1,2,3,391,0,327,131,2,4,5
5184,1,2,3,440,1,294,132,1,4,5
5184,1,1,2,580,0,2,133,2,4,5
5184,1,1,1,505,1,347,134,1,4,5
5184,1,2,3,517,0,329,135,2,4,5
5184,1,1,2,331,0,353,136,2,4,5
5184,1,1,1,595,0,46,137,2,4,5
5184,1,2,3,437,1,2,138,1,4,5
5184,1,2,4,439,0,357,139,2,4,5
5184,1,1,2,324,0,249,140,2,4,5
5184,1,2,4,447,0,254,141,2,4,5
5184,1,1,1,352,1,342,142,1,4,5
5184,1,2,4,561,1,333,143,1,4,5
5184,1,1,2,430,1,440,144,1,4,5
5184,1,1,1,470,1,342,145,1,4,6
5184,1,1,2,412,1,425,146,1,4,6
5184,1,2,3,594,1,250,147,1,4,6
5184,1,1,1,374,1,361,148,1,4,6
5184,1,2,4,393,0,375,149,2,4,6
5184,1,1,1,400,1,365,150,1,4,6
5184,1,1,1,304,1,406,151,1,4,6
5184,1,2,3,535,1,259,152,1,4,6
5184,1,1,2,403,1,375,153,1,4,6
5184,1,1,2,386,0,272,154,2,4,6
5184,1,2,4,554,1,361,155,1,4,6
5184,1,1,2,510,0,248,156,2,4,6
5184,1,2,3,563,1,293,157,1,4,6
5184,1,2,3,538,0,452,158,2,4,6
5184,1,2,4,313,1,330,159,1,4,6
5184,1,2,4,553,1,437,160,1,4,6
5184,1,1,2,325,0,206,161,2,4,6
5184,1,2,4,346,1,76,162,1,4,6
5184,1,2,3,554,0,376,163,2,4,6
5184,1,1,1,585,0,270,164,2,4,6
5184,1,2,4,528,0,322,165,2,4,6
5184,1,1,1,362,1,115,166,1,4,6
5184,1,1,1,464,1,270,167,1,4,6
5184,1,1,2,435,0,129,168,2,4,6
5184,1,1,2,322,0,365,169,2,4,6
5184,1,2,3,589,0,0,170,3,4,6
5184,1,1,2,505,1,277,171,1,4,6
5184,1,2,3,314,0,0,172,3,4,6
5184,1,1,1,323,1,350,173,1,4,6
5184,1,2,3,349,0,357,174,2,4,6
5184,1,2,4,535,1,339,175,1,4,6
5184,1,2,4,380,0,0,176,3,4,6
5184,1,2,4,553,0,455,177,2,4,7
5184,1,2,4,507,0,222,178,2,4,7
5184,1,1,2,563,0,231,179,2,4,7
5184,1,1,2,390,1,502,180,1,4,7
5184,1,2,3,492,1,283,181,1,4,7
5184,1,1,1,394,1,474,182,1,4,7
5184,1,1,1,347,1,370,183,1,4,7
5184,1,1,2,345,0,229,184,2,4,7
5184,1,2,3,588,0,0,185,3,4,7
5184,1,1,1,582,1,364,186,1,4,7
5184,1,2,3,457,0,309,187,2,4,7
5184,1,2,4,316,0,610,188,2,4,7
5184,1,1,2,381,0,389,189,2,4,7
5184,1,1,1,340,1,459,190,1,4,7
5184,1,2,4,400,0,493,191,2,4,7
5184,1,2,3,373,0,271,192,2,4,7
5184,1,1,2,488,1,467,193,1,4,7
5184,1,1,2,463,1,395,194,1,4,7
5184,1,2,4,548,0,363,195,2,4,7
5184,1,2,3,309,0,0,196,3,4,7
5184,1,1,1,526,0,0,197,3,4,7
5184,1,2,4,476,0,420,198,2,4,7
5184,1,1,2,384,1,338,199,1,4,7
5184,1,1,1,404,1,331,200,1,4,7
5184,1,1,2,508,1,321,201,1,4,7
5184,1,2,3,429,1,425,202,1,4,7
5184,1,2,4,528,0,385,203,2,4,7
5184,1,1,1,318,1,364,204,1,4,7
5184,1,2,3,350,1,3,205,1,4,7
5184,1,2,4,513,1,319,206,1,4,7
5184,1,2,3,552,1,954,207,1,4,7
5184,1,1,1,463,0,238,208,2,4,7
5184,1,2,4,442,0,337,209,2,4,8
5184,1,2,3,532,0,452,210,2,4,8
5184,1,2,4,424,0,351,211,2,4,8
5184,1,2,4,467,1,390,212,1,4,8
5184,1,1,1,395,0,330,213,2,4,8
5184,1,2,3,321,0,766,214,2,4,8
5184,1,1,2,376,1,373,215,1,4,8
5184,1,2,3,340,0,452,216,2,4,8
5184,1,1,2,331,1,382,217,1,4,8
5184,1,1,2,588,1,419,218,1,4,8
5184,1,1,1,399,0,319,219,2,4,8
5184,1,2,4,542,1,305,220,1,4,8
5184,1,1,2,452,0,262,221,2,4,8
5184,1,2,3,377,0,233,222,2,4,8
5184,1,1,1,412,1,141,223,1,4,8
5184,1,1,1,323,0,440,224,2,4,8
5184,1,1,2,482,1,355,225,1,4,8
5184,1,2,4,324,1,485,226,1,4,8
5184,1,1,1,342,1,295,227,1,4,8
5184,1,1,2,540,1,414,228,1,4,8
5184,1,2,3,302,0,353,229,2,4,8
5184,1,1,1,317,1,512,230,1,4,8
5184,1,2,3,478,0,411,231,2,4,8
5184,1,1,2,380,1,301,232,1,4,8
5184,1,2,3,328,0,401,233,2,4,8
5184,1,2,4,455,0,268,234,2,4,8
5184,1,2,4,544,1,67,235,1,4,8
5184,1,2,4,409,1,342,236,1,4,8
5184,1,2,3,371,0,388,237,2,4,8
5184,1,1,1,599,0,328,238,2,4,8
5184,1,1,1,441,1,324,239,1,4,8
5184,1,1,2,481,1,377,240,1,4,8
5184,1,1,2,562,1,296,241,1,4,9
5184,1,2,3,387,0,446,242,2,4,9
5184,1,1,2,319,0,305,243,2,4,9
5184,1,1,1,482,0,86,244,2,4,9
5184,1,2,4,445,0,0,245,3,4,9
5184,1,2,3,471,0,376,246,2,4,9
5184,1,1,2,586,1,300,247,1,4,9
5184,1,2,4,571,0,339,248,2,4,9
5184,1,2,4,386,0,380,249,2,4,9
5184,1,2,4,552,0,237,250,2,4,9
5184,1,1,2,502,0,251,251,2,4,9
5184,1,1,1,419,0,232,252,2,4,9
5184,1,2,3,574,1,319,253,1,4,9
5184,1,2,3,357,1,131,254,1,4,9
5184,1,1,1,404,1,128,255,1,4,9
5184,1,1,1,425,0,182,256,2,4,9
5184,1,1,2,409,1,328,257,1,4,9
5184,1,1,1,351,1,409,258,1,4,9
5184,1,1,1,304,0,319,259,2,4,9
5184,1,2,3,492,1,243,260,1,4,9
5184,1,2,3,509,1,119,261,1,4,9
5184,1,2,3,568,0,346,262,2,4,9
5184,1,2,4,402,1,301,263,1,4,9
5184,1,2,4,324,1,303,264,1,4,9
5184,1,1,2,417,0,263,265,2,4,9
5184,1,1,2,521,1,531,266,1,4,9
5184,1,1,1,382,1,168,267,1,4,9
5184,1,1,2,450,1,423,268,1,4,9
5184,1,2,3,571,0,286,269,2,4,9
5184,1,2,4,593,0,0,270,3,4,9
5184,1,2,4,435,1,306,271,1,4,9
5184,1,1,1,516,1,213,272,1,4,9
5184,1,2,3,541,0,276,273,2,4,10
5184,1,1,1,447,1,244,274,1,4,10
5184,1,2,3,382,0,325,275,2,4,10
5184,1,1,1,386,1,235,276,1,4,10
5184,1,1,2,555,1,257,277,1,4,10
5184,1,1,1,328,0,268,278,2,4,10
5184,1,2,3,524,1,301,279,1,4,10
5184,1,2,4,367,0,334,280,2,4,10
5184,1,2,4,414,0,327,281,2,4,10
5184,1,1,2,515,0,237,282,2,4,10
5184,1,1,1,438,1,376,283,1,4,10
5184,1,1,2,513,0,316,284,2,4,10
5184,1,2,4,545,0,291,285,2,4,10
5184,1,2,3,355,1,347,286,1,4,10
5184,1,1,2,317,0,255,287,2,4,10
5184,1,2,4,507,1,311,288,1,4,10
5184,1,2,4,593,0,16,289,2,4,10
5184,1,2,3,462,0,348,290,2,4,10
5184,1,1,1,384,1,129,291,1,4,10
5184,1,1,1,359,1,277,292,1,4,10
5184,1,2,3,334,1,255,293,1,4,10
5184,1,2,4,302,0,374,294,2,4,10
5184,1,2,3,406,1,255,295,1,4,10
5184,1,2,4,397,0,161,296,2,4,10
5184,1,1,1,533,1,200,297,1,4,10
5184,1,1,2,518,1,325,298,1,4,10
5184,1,1,2,548,1,302,299,1,4,10
5184,1,2,3,393,0,235,300,2,4,10
5184,1,1,2,598,1,36,301,1,4,10
5184,1,1,1,433,1,10,302,1,4,10
5184,1,2,4,438,0,325,303,2,4,10
5184,1,1,2,534,1,241,304,1,4,10
5184,1,2,3,469,0,302,305,2,4,11
5184,1,1,1,414,1,239,306,1,4,11
5184,1,1,1,493,1,289,307,1,4,11
5184,1,2,3,350,1,194,308,1,4,11
5184,1,1,2,357,1,272,309,1,4,11
5184,1,1,1,515,0,271,310,2,4,11
5184,1,1,1,558,1,350,311,1,4,11
5184,1,1,2,534,1,402,312,1,4,11
5184,1,1,2,469,1,362,313,1,4,11
5184,1,2,4,365,1,303,314,1,4,11
5184,1,2,3,518,1,272,315,1,4,11
5184,1,2,4,432,0,305,316,2,4,11
5184,1,2,4,438,1,309,317,1,4,11
5184,1,2,4,347,0,384,318,2,4,11
5184,1,1,2,303,1,319,319,1,4,11
5184,1,2,3,390,0,257,320,2,4,11
5184,1,1,2,314,0,226,321,2,4,11
5184,1,2,4,382,0,0,322,3,4,11
5184,1,1,2,412,1,329,323,1,4,11
5184,1,2,3,472,1,391,324,1,4,11
5184,1,2,3,402,1,286,325,1,4,11
5184,1,2,3,559,0,317,326,2,4,11
5184,1,2,4,457,1,267,327,1,4,11
5184,1,1,1,564,1,177,328,1,4,11
5184,1,2,3,522,0,425,329,2,4,11
5184,1,2,4,364,0,395,330,2,4,11
5184,1,2,4,419,0,192,331,2,4,11
5184,1,1,2,363,0,188,332,2,4,11
5184,1,1,1,371,0,304,333,2,4,11
5184,1,1,1,592,0,0,334,3,4,11
5184,1,1,2,483,1,357,335,1,4,11
5184,1,1,1,578,0,425,336,2,4,11
5184,1,2,4,541,1,220,337,1,4,12
5184,1,1,2,371,1,356,338,1,4,12
5184,1,1,2,577,1,283,339,1,4,12
5184,1,1,1,513,0,277,340,2,4,12
5184,1,2,3,564,0,286,341,2,4,12
5184,1,1,2,491,1,235,342,1,4,12
5184,1,2,3,354,0,231,343,2,4,12
5184,1,2,3,396,1,86,344,1,4,12
5184,1,2,4,541,1,272,345,1,4,12
5184,1,2,4,407,1,313,346,1,4,12
5184,1,1,1,505,0,260,347,2,4,12
5184,1,2,3,518,0,290,348,2,4,12
5184,1,1,1,480,0,327,349,2,4,12
5184,1,1,1,401,0,286,350,2,4,12
5184,1,1,2,569,0,263,351,2,4,12
5184,1,2,4,314,1,262,352,1,4,12
5184,1,2,4,502,1,458,353,1,4,12
5184,1,2,3,302,0,166,354,2,4,12
5184,1,2,4,422,1,141,355,1,4,12
5184,1,2,3,456,0,218,356,2,4,12
5184,1,1,2,392,1,145,357,1,4,12
5184,1,1,1,524,0,284,358,2,4,12
5184,1,2,4,444,1,225,359,1,4,12
5184,1,1,2,589,0,370,360,2,4,12
5184,1,1,2,579,1,93,361,1,4,12
5184,1,2,4,479,0,0,362,3,4,12
5184,1,1,1,471,0,0,363,3,4,12
5184,1,2,3,380,1,252,364,1,4,12
5184,1,1,1,464,1,410,365,1,4,12
5184,1,1,1,568,0,278,366,2,4,12
5184,1,1,2,546,0,255,367,2,4,12
5184,1,2,3,546,0,108,368,2,4,12
5202,1,2,3,562,1,821,17,1,1,2
5202,1,1,1,518,1,703,18,1,1,2
5202,1,1,1,458,1,691,19,1,1,2
5202,1,1,2,530,1,617,20,1,1,2
5202,1,2,3,505,1,797,21,1,1,2
5202,1,2,3,503,1,837,22,1,1,2
5202,1,1,1,513,1,660,23,1,1,2
5202,1,2,4,332,1,726,24,1,1,2
5202,1,2,3,553,1,714,25,1,1,2
5202,1,1,1,499,1,697,26,1,1,2
5202,1,2,4,510,1,779,27,1,1,2
5202,1,2,4,547,1,1486,28,1,1,2
5202,1,1,2,440,1,650,29,1,1,2
5202,1,2,4,440,1,820,30,1,1,2
5202,1,1,2,465,1,639,31,1,1,2
5202,1,1,2,487,1,601,32,1,1,2
5202,1,2,4,434,1,854,33,1,1,2
5202,1,1,1,500,1,687,34,1,1,2
5202,1,1,1,392,1,450,35,1,1,2
5202,1,2,4,389,1,1003,36,1,1,2
5202,1,1,2,405,1,857,37,1,1,2
5202,1,2,3,499,0,0,38,3,1,2
5202,1,1,1,426,0,0,39,3,1,2
5202,1,2,4,473,1,972,40,1,1,2
5202,1,1,1,597,1,666,41,1,1,2
5202,1,1,2,353,1,804,42,1,1,2
5202,1,2,3,435,0,0,43,3,1,2
5202,1,2,4,453,1,680,44,1,1,2
5202,1,2,3,524,1,990,45,1,1,2
5202,1,2,3,431,1,973,46,1,1,2
5202,1,1,2,406,1,722,47,1,1,2
5202,1,1,2,544,1,1470,48,1,1,2
5202,1,2,4,381,1,926,49,1,3,3
5202,1,1,2,389,1,634,50,1,3,3
5202,1,1,2,530,1,522,51,1,3,3
5202,1,2,3,589,1,1331,52,1,3,3
5202,1,2,3,517,1,810,53,1,3,3
5202,1,1,2,332,1,684,54,1,3,3
5202,1,1,1,593,1,831,55,1,3,3
5202,1,2,3,488,1,757,56,1,3,3
5202,1,2,3,496,1,1135,57,1,3,3
5202,1,1,2,397,1,758,58,1,3,3
5202,1,1,1,432,1,921,59,1,3,3
5202,1,1,1,555,1,1064,60,1,3,3
5202,1,2,4,415,1,828,61,1,3,3
5202,1,1,1,535,1,941,62,1,3,3
5202,1,2,4,306,1,1211,63,1,3,3
5202,1,2,4,457,0,0,64,3,3,3
5202,1,1,2,355,0,0,65,3,3,3
5202,1,2,3,390,1,705,66,1,3,3
5202,1,1,2,451,1,712,67,1,3,3
5202,1,2,4,404,0,0,68,3,3,3
5202,1,1,1,513,1,631,69,1,3,3
5202,1,2,4,434,0,0,70,3,3,3
5202,1,1,1,376,1,612,71,1,3,3
5202,1,2,3,352,1,1245,72,1,3,3
5202,1,1,1,410,0,0,73,3,3,3
5202,1,1,2,595,1,867,74,1,3,3
5202,1,1,1,437,1,532,75,1,3,3
5202,1,1,2,404,1,516,76,1,3,3
5202,1,2,3,401,1,1487,77,1,3,3
5202,1,2,4,539,1,777,78,1,3,3
5202,1,2,4,586,0,0,79,3,3,3
5202,1,2,3,403,1,1195,80,1,3,3
5202,1,2,3,426,0,0,81,3,2,4
5202,1,1,1,308,1,725,82,1,2,4
5202,1,1,2,444,1,593,83,1,2,4
5202,1,1,1,496,1,724,84,1,2,4
5202,1,2,4,506,1,1119,85,1,2,4
5202,1,2,3,385,1,1177,86,1,2,4
5202,1,1,2,419,1,699,87,1,2,4
5202,1,1,2,390,1,778,88,1,2,4
5202,1,2,4,348,1,1389,89,1,2,4
5202,1,2,3,487,1,953,90,1,2,4
5202,1,1,1,577,1,670,91,1,2,4
5202,1,1,2,489,1,1321,92,1,2,4
5202,1,2,3,341,0,0,93,3,2,4
5202,1,2,4,494,1,1134,94,1,2,4
5202,1,2,4,418,0,983,95,2,2,4
5202,1,1,1,406,0,0,96,3,2,4
5202,1,1,1,318,1,715,97,1,2,4
5202,1,1,2,429,1,794,98,1,2,4
5202,1,1,1,586,1,603,99,1,2,4
5202,1,2,4,386,1,700,100,1,2,4
5202,1,2,3,575,1,1328,101,1,2,4
5202,1,2,3,498,0,0,102,3,2,4
5202,1,2,3,539,0,0,103,3,2,4
5202,1,1,1,503,1,129,104,1,2,4
5202,1,2,4,433,0,0,105,3,2,4
5202,1,2,4,470,0,0,106,3,2,4
5202,1,2,4,535,0,796,107,2,2,4
5202,1,1,2,544,1,655,108,1,2,4
5202,1,1,2,487,1,620,109,1,2,4
5202,1,2,3,310,0,0,110,3,2,4
5202,1,1,2,338,1,115,111,1,2,4
5202,1,1,1,345,1,467,112,1,2,4
5202,1,1,1,535,1,466,113,1,4,5
5202,1,2,4,558,0,0,114,3,4,5
5202,1,2,4,529,1,99,115,1,4,5
5202,1,2,3,301,1,1105,116,1,4,5
5202,1,1,2,563,1,688,117,1,4,5
5202,1,1,2,306,1,764,118,1,4,5
5202,1,1,2,426,1,616,119,1,4,5
5202,1,1,1,441,1,651,120,1,4,5
5202,1,1,1,502,1,556,121,1,4,5
5202,1,1,2,470,1,786,122,1,4,5
5202,1,2,4,570,0,0,123,3,4,5
5202,1,2,3,447,1,1378,124,1,4,5
5202,1,1,1,456,1,1060,125,1,4,5
5202,1,2,4,468,1,1480,126,1,4,5
5202,1,2,3,534,1,979,127,1,4,5
5202,1,2,3,427,0,0,128,3,4,5
5202,1,2,4,427,1,881,129,1,4,5
5202,1,2,3,469,0,0,130,3,4,5
5202,1,1,1,485,1,874,131,1,4,5
5202,1,2,3,473,1,1124,132,1,4,5
5202,1,2,4,486,0,0,133,3,4,5
5202,1,1,1,389,1,791,134,1,4,5
5202,1,2,3,519,1,1449,135,1,4,5
5202,1,1,1,465,1,788,136,1,4,5
5202,1,1,2,505,1,730,137,1,4,5
5202,1,2,3,591,0,0,138,3,4,5
5202,1,1,1,461,1,966,139,1,4,5
5202,1,1,2,585,1,647,140,1,4,5
5202,1,1,2,419,1,874,141,1,4,5
5202,1,2,4,319,0,0,142,3,4,5
5202,1,2,4,500,1,1494,143,1,4,5
5202,1,1,2,589,1,796,144,1,4,5
5202,1,2,4,477,0,517,145,2,2,6
5202,1,1,1,394,1,658,146,1,2,6
5202,1,1,2,349,1,479,147,1,2,6
5202,1,2,3,550,1,696,148,1,2,6
5202,1,2,4,466,1,740,149,1,2,6
5202,1,1,2,416,1,677,150,1,2,6
5202,1,1,1,531,1,591,151,1,2,6
5202,1,1,2,325,1,751,152,1,2,6
5202,1,1,1,467,1,520,153,1,2,6
5202,1,2,3,314,1,1129,154,1,2,6
5202,1,2,3,557,1,823,155,1,2,6
5202,1,2,4,565,1,821,156,1,2,6
5202,1,2,4,594,1,1189,157,1,2,6
5202,1,1,1,410,1,702,158,1,2,6
5202,1,2,3,533,1,987,159,1,2,6
5202,1,1,2,599,1,734,160,1,2,6
5202,1,1,2,550,1,712,161,1,2,6
5202,1,1,1,402,1,671,162,1,2,6
5202,1,2,4,374,0,0,163,3,2,6
5202,1,2,3,579,1,852,164,1,2,6
5202,1,1,2,407,1,699,165,1,2,6
5202,1,2,4,447,0,0,166,3,2,6
5202,1,1,2,378,1,749,167,1,2,6
5202,1,2,3,444,1,789,168,1,2,6
5202,1,1,1,370,0,0,169,3,2,6
5202,1,1,2,351,1,893,170,1,2,6
5202,1,2,3,516,0,0,171,3,2,6
5202,1,2,3,308,0,872,172,2,2,6
5202,1,2,4,517,0,961,173,2,2,6
5202,1,2,4,342,1,834,174,1,2,6
5202,1,1,1,562,1,721,175,1,2,6
5202,1,1,1,562,1,641,176,1,2,6
5202,1,2,4,344,1,1059,177,1,2,7
5202,1,1,1,562,1,425,178,1,2,7
5202,1,2,4,455,1,648,179,1,2,7
5202,1,1,2,318,1,559,180,1,2,7
5202,1,2,3,346,1,587,181,1,2,7
5202,1,2,4,465,1,622,182,1,2,7
5202,1,2,4,555,1,652,183,1,2,7
5202,1,1,2,345,1,1005,184,1,2,7
5202,1,1,1,557,1,441,185,1,2,7
5202,1,1,2,454,1,548,186,1,2,7
5202,1,1,1,404,0,0,187,3,2,7
5202,1,1,1,460,1,444,188,1,2,7
5202,1,2,3,442,1,777,189,1,2,7
5202,1,2,3,532,1,877,190,1,2,7
5202,1,1,2,332,1,666,191,1,2,7
5202,1,2,3,421,1,787,192,1,2,7
5202,1,1,1,440,0,0,193,3,2,7
5202,1,2,4,471,1,657,194,1,2,7
5202,1,1,1,416,1,903,195,1,2,7
5202,1,2,3,460,1,857,196,1,2,7
5202,1,2,4,401,1,1100,197,1,2,7
5202,1,2,3,349,1,829,198,1,2,7
5202,1,1,2,383,1,1300,199,1,2,7
5202,1,2,4,459,1,1491,200,1,2,7
5202,1,1,2,336,1,769,201,1,2,7
5202,1,1,1,583,1,532,202,1,2,7
5202,1,1,1,506,1,466,203,1,2,7
5202,1,1,2,484,0,355,204,2,2,7
5202,1,2,4,318,0,0,205,3,2,7
5202,1,2,3,583,0,537,206,2,2,7
5202,1,1,2,581,1,733,207,1,2,7
5202,1,2,3,494,1,799,208,1,2,7
5202,1,2,3,525,1,754,209,1,2,8
5202,1,2,4,592,1,736,210,1,2,8
5202,1,1,1,475,1,464,211,1,2,8
5202,1,1,2,326,1,658,212,1,2,8
5202,1,1,1,445,1,515,213,1,2,8
5202,1,2,4,419,1,757,214,1,2,8
5202,1,1,1,470,1,776,215,1,2,8
5202,1,1,2,463,0,0,216,3,2,8
5202,1,2,3,363,1,553,217,1,2,8
5202,1,2,4,329,1,778,218,1,2,8
5202,1,2,4,439,1,901,219,1,2,8
5202,1,2,3,353,1,1240,220,1,2,8
5202,1,1,1,413,1,772,221,1,2,8
5202,1,2,3,541,1,856,222,1,2,8
5202,1,1,2,456,1,642,223,1,2,8
5202,1,1,2,484,1,722,224,1,2,8
5202,1,1,2,349,0,0,225,3,2,8
5202,1,2,4,429,0,607,226,2,2,8
5202,1,2,3,592,1,957,227,1,2,8
5202,1,2,3,461,1,772,228,1,2,8
5202,1,1,2,544,1,599,229,1,2,8
5202,1,2,4,496,1,571,230,1,2,8
5202,1,2,4,558,1,691,231,1,2,8
5202,1,1,1,584,1,611,232,1,2,8
5202,1,1,1,476,1,799,233,1,2,8
5202,1,2,3,462,1,594,234,1,2,8
5202,1,1,2,544,1,932,235,1,2,8
5202,1,1,1,374,1,705,236,1,2,8
5202,1,2,3,355,1,805,237,1,2,8
5202,1,1,2,597,1,764,238,1,2,8
5202,1,1,1,408,1,564,239,1,2,8
5202,1,2,4,311,1,862,240,1,2,8
5202,1,1,2,558,1,595,241,1,3,9
5202,1,1,1,366,1,596,242,1,3,9
5202,1,2,3,316,1,864,243,1,3,9
5202,1,2,4,523,1,812,244,1,3,9
5202,1,2,3,584,1,729,245,1,3,9
5202,1,2,3,339,1,738,246,1,3,9
5202,1,1,1,531,1,536,247,1,3,9
5202,1,2,4,395,1,718,248,1,3,9
5202,1,2,4,535,1,605,249,1,3,9
5202,1,1,2,324,1,678,250,1,3,9
5202,1,2,3,539,1,862,251,1,3,9
5202,1,1,2,397,1,588,252,1,3,9
5202,1,2,4,484,1,738,253,1,3,9
5202,1,1,1,432,1,666,254,1,3,9
5202,1,1,1,305,1,727,255,1,3,9
5202,1,1,2,525,1,828,256,1,3,9
5202,1,2,3,499,1,1437,257,1,3,9
5202,1,2,4,557,1,712,258,1,3,9
5202,1,2,3,341,1,747,259,1,3,9
5202,1,1,2,345,1,975,260,1,3,9
5202,1,1,1,354,1,529,261,1,3,9
5202,1,2,3,546,0,449,262,2,3,9
5202,1,2,4,562,0,920,263,2,3,9
5202,1,2,4,383,1,1291,264,1,3,9
5202,1,1,2,455,1,683,265,1,3,9
5202,1,1,1,336,1,752,266,1,3,9
5202,1,2,4,423,1,890,267,1,3,9
5202,1,1,1,466,1,509,268,1,3,9
5202,1,1,2,491,1,743,269,1,3,9
5202,1,1,1,588,1,562,270,1,3,9
5202,1,2,3,570,0,524,271,2,3,9
5202,1,1,2,589,1,848,272,1,3,9
5202,1,2,4,569,0,906,273,2,3,10
5202,1,2,3,501,1,858,274,1,3,10
5202,1,1,2,496,1,523,275,1,3,10
5202,1,2,4,400,1,705,276,1,3,10
5202,1,2,4,387,1,729,277,1,3,10
5202,1,2,3,495,1,786,278,1,3,10
5202,1,2,4,370,1,693,279,1,3,10
5202,1,1,2,413,1,569,280,1,3,10
5202,1,1,1,496,1,528,281,1,3,10
5202,1,1,1,494,1,707,282,1,3,10
5202,1,1,1,509,1,693,283,1,3,10
5202,1,1,2,415,1,579,284,1,3,10
5202,1,1,1,480,1,693,285,1,3,10
5202,1,2,3,311,0,0,286,3,3,10
5202,1,2,3,496,1,797,287,1,3,10
5202,1,1,2,439,1,617,288,1,3,10
5202,1,2,3,600,1,831,289,1,3,10
5202,1,2,3,443,1,679,290,1,3,10
5202,1,2,3,585,1,653,291,1,3,10
5202,1,2,4,375,1,755,292,1,3,10
5202,1,2,3,515,1,859,293,1,3,10
5202,1,1,2,339,1,625,294,1,3,10
5202,1,1,2,307,0,0,295,3,3,10
5202,1,1,2,363,0,0,296,3,3,10
5202,1,1,1,317,1,807,297,1,3,10
5202,1,1,2,386,1,593,298,1,3,10
5202,1,1,1,489,1,456,299,1,3,10
5202,1,2,4,432,1,1412,300,1,3,10
5202,1,1,1,549,1,769,301,1,3,10
5202,1,1,1,346,1,977,302,1,3,10
5202,1,2,4,469,1,718,303,1,3,10
5202,1,2,4,555,1,1229,304,1,3,10
5202,1,1,2,399,1,754,305,1,2,11
5202,1,2,3,444,1,808,306,1,2,11
5202,1,2,4,409,1,625,307,1,2,11
5202,1,2,4,512,1,815,308,1,2,11
5202,1,1,2,469,1,586,309,1,2,11
5202,1,1,1,388,1,580,310,1,2,11
5202,1,1,2,449,1,540,311,1,2,11
5202,1,1,1,482,1,549,312,1,2,11
5202,1,1,1,428,1,561,313,1,2,11
5202,1,1,2,346,1,588,314,1,2,11
5202,1,2,3,527,0,457,315,2,2,11
5202,1,2,4,555,1,744,316,1,2,11
5202,1,2,3,524,1,700,317,1,2,11
5202,1,2,3,586,0,0,318,3,2,11
5202,1,2,4,454,1,1144,319,1,2,11
5202,1,1,1,511,1,616,320,1,2,11
5202,1,1,2,417,1,667,321,1,2,11
5202,1,2,4,476,1,791,322,1,2,11
5202,1,2,4,489,1,681,323,1,2,11
5202,1,2,3,458,1,978,324,1,2,11
5202,1,1,1,546,1,890,325,1,2,11
5202,1,2,3,576,1,991,326,1,2,11
5202,1,1,1,371,1,936,327,1,2,11
5202,1,1,2,300,1,672,328,1,2,11
5202,1,2,3,497,1,1163,329,1,2,11
5202,1,1,1,577,1,591,330,1,2,11
5202,1,2,4,373,1,1473,331,1,2,11
5202,1,2,3,478,1,661,332,1,2,11
5202,1,1,2,557,1,717,333,1,2,11
5202,1,2,4,414,0,0,334,3,2,11
5202,1,1,1,600,1,685,335,1,2,11
5202,1,1,2,427,1,1018,336,1,2,11
5202,1,2,4,500,1,1129,337,1,3,12
5202,1,2,4,374,0,801,338,2,3,12
5202,1,1,1,365,1,759,339,1,3,12
5202,1,1,2,413,1,560,340,1,3,12
5202,1,1,2,518,1,730,341,1,3,12
5202,1,2,3,564,1,1065,342,1,3,12
5202,1,2,3,391,1,738,343,1,3,12
5202,1,1,1,514,1,581,344,1,3,12
5202,1,1,2,539,1,628,345,1,3,12
5202,1,2,4,465,1,759,346,1,3,12
5202,1,2,3,573,1,776,347,1,3,12
5202,1,2,3,569,1,1450,348,1,3,12
5202,1,1,1,543,1,715,349,1,3,12
5202,1,1,1,395,0,0,350,3,3,12
5202,1,1,2,314,1,449,351,1,3,12
5202,1,2,4,353,1,765,352,1,3,12
5202,1,1,1,325,1,639,353,1,3,12
5202,1,1,1,326,1,649,354,1,3,12
5202,1,1,2,497,1,620,355,1,3,12
5202,1,1,2,433,1,600,356,1,3,12
5202,1,1,2,589,0,481,357,2,3,12
5202,1,2,4,369,1,896,358,1,3,12
5202,1,2,3,550,1,974,359,1,3,12
5202,1,2,3,440,1,740,360,1,3,12
5202,1,2,4,352,1,744,361,1,3,12
5202,1,2,4,352,1,967,362,1,3,12
5202,1,2,3,516,1,791,363,1,3,12
5202,1,2,3,389,1,961,364,1,3,12
5202,1,1,1,397,1,674,365,1,3,12
5202,1,2,4,339,0,931,366,2,3,12
5202,1,1,1,405,1,593,367,1,3,12
5202,1,1,2,549,1,731,368,1,3,12
5203,1,2,3,484,0,636,17,2,1,2
5203,1,1,2,334,0,495,18,2,1,2
5203,1,1,1,442,0,436,19,2,1,2
5203,1,1,2,391,0,226,20,2,1,2
5203,1,1,1,376,0,300,21,2,1,2
5203,1,2,4,495,0,235,22,2,1,2
5203,1,2,4,576,1,242,23,1,1,2
5203,1,2,4,516,1,347,24,1,1,2
5203,1,2,3,540,0,0,25,3,1,2
5203,1,1,2,551,0,459,26,2,1,2
5203,1,2,4,304,0,498,27,2,1,2
5203,1,1,1,496,0,415,28,2,1,2
5203,1,2,3,335,1,254,29,1,1,2
5203,1,1,2,550,0,250,30,2,1,2
5203,1,2,3,562,0,266,31,2,1,2
5203,1,1,1,349,1,297,32,1,1,2
5203,1,1,1,381,1,525,33,1,1,2
5203,1,2,4,556,0,561,34,2,1,2
5203,1,1,1,481,0,390,35,2,1,2
5203,1,2,3,424,1,324,36,1,1,2
5203,1,2,4,513,0,556,37,2,1,2
5203,1,1,1,492,0,427,38,2,1,2
5203,1,1,2,352,0,375,39,2,1,2
5203,1,2,4,417,1,221,40,1,1,2
5203,1,2,3,577,0,0,41,3,1,2
5203,1,1,2,546,0,417,42,2,1,2
5203,1,1,2,479,1,250,43,1,1,2
5203,1,2,3,332,0,421,44,2,1,2
5203,1,2,3,463,1,232,45,1,1,2
5203,1,2,4,364,1,9,46,1,1,2
5203,1,1,1,467,0,393,47,2,1,2
5203,1,1,2,494,0,291,48,2,1,2
5203,1,1,2,468,1,571,49,1,4,3
5203,1,2,4,377,0,398,50,2,4,3
5203,1,1,1,480,1,611,51,1,4,3
5203,1,1,1,596,0,399,52,2,4,3
5203,1,1,1,511,1,717,53,1,4,3
5203,1,1,2,595,1,373,54,1,4,3
5203,1,2,4,565,0,334,55,2,4,3
5203,1,2,3,600,1,446,56,1,4,3
5203,1,2,3,596,1,462,57,1,4,3
5203,1,2,3,377,1,419,58,1,4,3
5203,1,2,3,465,1,500,59,1,4,3
5203,1,1,2,384,1,363,60,1,4,3
5203,1,2,4,495,0,467,61,2,4,3
5203,1,1,1,511,1,393,62,1,4,3
5203,1,2,4,314,0,308,63,2,4,3
5203,1,1,2,543,1,241,64,1,4,3
5203,1,2,3,501,0,403,65,2,4,3
5203,1,1,1,492,1,287,66,1,4,3
5203,1,2,3,431,0,683,67,2,4,3
5203,1,1,2,511,0,323,68,2,4,3
5203,1,2,4,460,0,402,69,2,4,3
5203,1,1,1,576,0,363,70,2,4,3
5203,1,2,3,371,0,481,71,2,4,3
5203,1,2,4,558,0,383,72,2,4,3
5203,1,2,4,574,1,267,73,1,4,3
5203,1,1,2,511,0,397,74,2,4,3
5203,1,1,2,540,0,359,75,2,4,3
5203,1,2,4,461,0,325,76,2,4,3
5203,1,1,1,415,1,335,77,1,4,3
5203,1,1,1,523,0,379,78,2,4,3
5203,1,1,2,464,1,372,79,1,4,3
5203,1,2,3,456,0,321,80,2,4,3
5203,1,1,1,541,0,434,81,2,4,4
5203,1,1,2,558,0,365,82,2,4,4
5203,1,2,4,409,0,493,83,2,4,4
5203,1,2,4,543,0,440,84,2,4,4
5203,1,1,2,413,0,473,85,2,4,4
5203,1,1,2,560,0,420,86,2,4,4
5203,1,1,2,356,0,529,87,2,4,4
5203,1,1,1,462,0,617,88,2,4,4
5203,1,2,3,427,0,477,89,2,4,4
5203,1,2,3,535,1,3,90,1,4,4
5203,1,2,3,539,0,459,91,2,4,4
5203,1,2,3,583,0,536,92,2,4,4
5203,1,1,1,364,0,358,93,2,4,4
5203,1,2,4,363,0,524,94,2,4,4
5203,1,1,1,478,0,328,95,2,4,4
5203,1,2,4,377,1,4,96,1,4,4
5203,1,2,3,520,0,491,97,2,4,4
5203,1,1,1,576,0,445,98,2,4,4
5203,1,2,3,412,0,558,99,2,4,4
5203,1,1,1,370,0,437,100,2,4,4
5203,1,2,4,424,0,383,101,2,4,4
5203,1,1,2,525,1,233,102,1,4,4
5203,1,2,4,338,0,727,103,2,4,4
5203,1,2,4,599,0,0,104,3,4,4
5203,1,2,3,491,0,437,105,2,4,4
5203,1,1,2,594,0,331,106,2,4,4
5203,1,2,3,420,0,368,107,2,4,4
5203,1,1,2,340,0,297,108,2,4,4
5203,1,1,2,527,1,203,109,1,4,4
5203,1,1,1,472,0,422,110,2,4,4
5203,1,2,4,562,0,270,111,2,4,4
5203,1,1,1,434,0,279,112,2,4,4
5203,1,1,2,361,0,0,113,3,4,5
5203,1,2,4,519,1,691,114,1,4,5
5203,1,2,3,522,1,475,115,1,4,5
5203,1,1,1,392,0,586,116,2,4,5
5203,1,1,2,360,1,747,117,1,4,5
5203,1,1,2,521,0,532,118,2,4,5
5203,1,1,1,324,0,445,119,2,4,5
5203,1,2,3,342,0,514,120,2,4,5
5203,1,2,3,556,1,419,121,1,4,5
5203,1,1,2,550,1,363,122,1,4,5
5203,1,1,1,494,1,285,123,1,4,5
5203,1,2,4,500,1,201,124,1,4,5
5203,1,2,4,517,0,311,125,2,4,5
5203,1,2,3,554,0,248,126,2,4,5
5203,1,1,1,323,1,418,127,1,4,5
5203,1,2,4,522,1,270,128,1,4,5
5203,1,2,4,406,0,291,129,2,4,5
5203,1,2,4,405,1,177,130,1,4,5
5203,1,2,4,387,0,408,131,2,4,5
5203,1,2,3,446,1,202,132,1,4,5
5203,1,1,1,422,1,618,133,1,4,5
5203,1,2,3,346,1,613,134,1,4,5
5203,1,2,3,438,1,406,135,1,4,5
5203,1,1,2,314,1,443,136,1,4,5
5203,1,1,1,407,1,325,137,1,4,5
5203,1,2,4,457,1,267,138,1,4,5
5203,1,1,1,557,1,196,139,1,4,5
5203,1,1,2,516,1,315,140,1,4,5
5203,1,1,1,565,1,214,141,1,4,5
5203,1,2,3,522,0,227,142,2,4,5
5203,1,1,2,463,0,258,143,2,4,5
5203,1,1,2,376,1,261,144,1,4,5
5203,1,1,1,558,1,434,145,1,4,6
5203,1,2,3,488,1,455,146,1,4,6
5203,1,1,1,427,0,532,147,2,4,6
5203,1,2,4,537,0,677,148,2,4,6
5203,1,1,2,375,0,489,149,2,4,6
5203,1,2,4,358,0,510,150,2,4,6
5203,1,1,1,561,0,326,151,2,4,6
5203,1,1,2,321,0,350,152,2,4,6
5203,1,2,3,518,0,220,153,2,4,6
5203,1,2,3,522,1,193,154,1,4,6
5203,1,2,3,510,1,412,155,1,4,6
5203,1,1,2,568,0,398,156,2,4,6
5203,1,1,2,564,0,393,157,2,4,6
5203,1,2,4,518,0,451,158,2,4,6
5203,1,1,1,490,0,349,159,2,4,6
5203,1,2,4,536,0,292,160,2,4,6
5203,1,1,2,451,1,277,161,1,4,6
5203,1,2,3,394,0,414,162,2,4,6
5203,1,1,1,529,1,13,163,1,4,6
5203,1,1,1,312,0,475,164,2,4,6
5203,1,2,4,508,0,344,165,2,4,6
5203,1,2,4,432,0,395,166,2,4,6
5203,1,1,1,547,0,271,167,2,4,6
5203,1,1,2,565,1,291,168,1,4,6
5203,1,2,3,393,0,273,169,2,4,6
5203,1,2,4,505,0,234,170,2,4,6
5203,1,1,2,427,1,191,171,1,4,6
5203,1,2,3,389,1,243,172,1,4,6
5203,1,1,2,363,0,298,173,2,4,6
5203,1,1,1,512,0,7,174,2,4,6
5203,1,2,4,416,0,289,175,2,4,6
5203,1,2,3,592,0,230,176,2,4,6
5203,1,1,1,308,0,0,177,3,4,7
5203,1,2,3,358,0,499,178,2,4,7
5203,1,2,4,590,0,398,179,2,4,7
5203,1,2,4,398,1,244,180,1,4,7
5203,1,1,2,391,0,354,181,2,4,7
5203,1,1,2,337,0,348,182,2,4,7
5203,1,2,3,424,0,348,183,2,4,7
5203,1,2,3,324,0,429,184,2,4,7
5203,1,1,1,519,1,302,185,1,4,7
5203,1,2,4,438,0,384,186,2,4,7
5203,1,1,2,384,0,326,187,2,4,7
5203,1,2,4,422,0,428,188,2,4,7
5203,1,1,1,375,0,302,189,2,4,7
5203,1,1,2,515,0,290,190,2,4,7
5203,1,1,1,543,0,238,191,2,4,7
5203,1,2,3,495,1,338,192,1,4,7
5203,1,1,1,465,1,292,193,1,4,7
5203,1,2,4,445,0,482,194,2,4,7
5203,1,1,2,463,0,331,195,2,4,7
5203,1,1,1,553,1,300,196,1,4,7
5203,1,2,3,497,1,272,197,1,4,7
5203,1,2,4,526,1,355,198,1,4,7
5203,1,1,2,533,0,348,199,2,4,7
5203,1,1,1,396,0,378,200,2,4,7
5203,1,2,3,506,0,297,201,2,4,7
5203,1,1,1,403,0,421,202,2,4,7
5203,1,2,4,436,0,286,203,2,4,7
5203,1,2,3,496,0,396,204,2,4,7
5203,1,1,2,557,0,228,205,2,4,7
5203,1,1,2,392,1,256,206,1,4,7
5203,1,2,3,481,0,386,207,2,4,7
5203,1,2,4,549,0,197,208,2,4,7
5203,1,2,4,442,0,497,209,2,4,8
5203,1,1,2,461,0,458,210,2,4,8
5203,1,1,2,595,0,428,211,2,4,8
5203,1,1,2,324,0,483,212,2,4,8
5203,1,2,4,465,0,241,213,2,4,8
5203,1,1,1,508,0,334,214,2,4,8
5203,1,2,3,401,1,388,215,1,4,8
5203,1,1,2,527,0,274,216,2,4,8
5203,1,2,3,518,0,306,217,2,4,8
5203,1,2,4,351,0,285,218,2,4,8
5203,1,1,1,535,0,234,219,2,4,8
5203,1,2,4,334,0,267,220,2,4,8
5203,1,1,1,511,0,208,221,2,4,8
5203,1,2,3,566,1,402,222,1,4,8
5203,1,2,3,590,0,442,223,2,4,8
5203,1,1,1,435,0,381,224,2,4,8
5203,1,2,3,572,0,442,225,2,4,8
5203,1,2,3,534,0,330,226,2,4,8
5203,1,1,1,307,0,391,227,2,4,8
5203,1,2,3,562,1,333,228,1,4,8
5203,1,1,1,450,0,376,229,2,4,8
5203,1,2,4,409,1,337,230,1,4,8
5203,1,1,2,358,1,598,231,1,4,8
5203,1,2,4,542,1,278,232,1,4,8
5203,1,2,4,498,0,243,233,2,4,8
5203,1,1,2,457,1,349,234,1,4,8
5203,1,2,3,343,0,378,235,2,4,8
5203,1,1,1,570,0,251,236,2,4,8
5203,1,1,2,421,0,449,237,2,4,8
5203,1,2,4,356,1,238,238,1,4,8
5203,1,1,1,400,1,244,239,1,4,8
5203,1,1,2,422,0,528,240,2,4,8
5203,1,2,3,537,0,573,241,2,4,9
5203,1,2,3,395,0,357,242,2,4,9
5203,1,2,3,596,0,388,243,2,4,9
5203,1,2,4,445,0,368,244,2,4,9
5203,1,2,3,538,0,333,245,2,4,9
5203,1,1,2,325,0,362,246,2,4,9
5203,1,1,2,358,1,300,247,1,4,9
5203,1,1,1,446,0,323,248,2,4,9
5203,1,1,1,545,0,378,249,2,4,9
5203,1,1,1,495,0,373,250,2,4,9
5203,1,1,1,440,0,341,251,2,4,9
5203,1,2,4,396,1,329,252,1,4,9
5203,1,1,2,522,0,343,253,2,4,9
5203,1,2,4,598,1,341,254,1,4,9
5203,1,1,2,358,0,604,255,2,4,9
5203,1,2,4,531,1,669,256,1,4,9
5203,1,1,1,551,0,0,257,3,4,9
5203,1,1,1,466,0,452,258,2,4,9
5203,1,2,3,458,1,418,259,1,4,9
5203,1,1,2,484,0,382,260,2,4,9
5203,1,2,4,448,1,269,261,1,4,9
5203,1,1,2,310,0,0,262,3,4,9
5203,1,1,1,548,0,0,263,3,4,9
5203,1,2,4,442,0,407,264,2,4,9
5203,1,1,2,564,0,491,265,2,4,9
5203,1,2,3,442,0,418,266,2,4,9
5203,1,2,3,486,1,295,267,1,4,9
5203,1,1,2,338,1,137,268,1,4,9
5203,1,2,4,470,0,0,269,3,4,9
5203,1,2,3,508,0,233,270,2,4,9
5203,1,2,4,406,1,487,271,1,4,9
5203,1,1,1,573,0,361,272,2,4,9
5203,1,2,3,501,0,371,273,2,4,10
5203,1,1,2,507,0,370,274,2,4,10
5203,1,2,4,380,0,402,275,2,4,10
5203,1,1,1,476,0,340,276,2,4,10
5203,1,1,1,563,1,283,277,1,4,10
5203,1,1,1,476,1,369,278,1,4,10
5203,1,1,2,599,0,304,279,2,4,10
5203,1,2,4,413,0,372,280,2,4,10
5203,1,2,4,535,0,377,281,2,4,10
5203,1,2,3,351,0,458,282,2,4,10
5203,1,1,2,411,0,362,283,2,4,10
5203,1,2,3,303,0,382,284,2,4,10
5203,1,1,1,416,0,304,285,2,4,10
5203,1,1,2,579,0,263,286,2,4,10
5203,1,2,4,457,1,290,287,1,4,10
5203,1,2,3,329,0,350,288,2,4,10
5203,1,2,4,340,0,284,289,2,4,10
5203,1,1,1,397,0,175,290,2,4,10
5203,1,2,4,317,0,343,291,2,4,10
5203,1,1,2,505,1,317,292,1,4,10
5203,1,1,2,409,1,266,293,1,4,10
5203,1,2,3,561,0,484,294,2,4,10
5203,1,1,2,344,0,235,295,2,4,10
5203,1,1,2,509,1,209,296,1,4,10
5203,1,2,3,523,0,377,297,2,4,10
5203,1,1,1,464,1,278,298,1,4,10
5203,1,2,4,585,0,354,299,2,4,10
5203,1,2,4,378,0,382,300,2,4,10
5203,1,2,3,500,0,355,301,2,4,10
5203,1,1,1,381,0,366,302,2,4,10
5203,1,2,3,464,0,364,303,2,4,10
5203,1,1,1,450,0,364,304,2,4,10
5203,1,1,2,537,0,329,305,2,4,11
5203,1,1,2,376,0,334,306,2,4,11
5203,1,1,1,374,0,351,307,2,4,11
5203,1,2,4,579,0,458,308,2,4,11
5203,1,2,4,572,1,386,309,1,4,11
5203,1,1,1,562,1,316,310,1,4,11
5203,1,1,2,480,0,329,311,2,4,11
5203,1,2,4,344,0,398,312,2,4,11
5203,1,2,3,304,1,415,313,1,4,11
5203,1,2,3,487,0,369,314,2,4,11
5203,1,2,4,336,1,349,315,1,4,11
5203,1,1,1,401,1,395,316,1,4,11
5203,1,2,3,561,1,256,317,1,4,11
5203,1,1,1,559,0,352,318,2,4,11
5203,1,1,2,411,0,449,319,2,4,11
5203,1,2,3,391,0,398,320,2,4,11
5203,1,2,4,307,0,306,321,2,4,11
5203,1,2,4,313,1,344,322,1,4,11
5203,1,2,3,330,0,471,323,2,4,11
5203,1,1,1,404,1,342,324,1,4,11
5203,1,1,2,393,0,342,325,2,4,11
5203,1,2,3,308,0,328,326,2,4,11
5203,1,1,2,386,0,225,327,2,4,11
5203,1,1,2,421,1,230,328,1,4,11
5203,1,2,4,521,1,265,329,1,4,11
5203,1,1,1,423,0,326,330,2,4,11
5203,1,2,4,394,1,413,331,1,4,11
5203,1,2,3,506,0,238,332,2,4,11
5203,1,1,1,439,1,200,333,1,4,11
5203,1,1,2,355,0,366,334,2,4,11
5203,1,1,1,506,1,286,335,1,4,11
5203,1,2,3,305,1,232,336,1,4,11
5203,1,1,1,491,0,404,337,2,4,12
5203,1,2,3,412,1,362,338,1,4,12
5203,1,1,2,566,0,327,339,2,4,12
5203,1,1,1,569,0,328,340,2,4,12
5203,1,1,1,567,0,349,341,2,4,12
5203,1,2,3,564,0,345,342,2,4,12
5203,1,2,3,554,0,365,343,2,4,12
5203,1,2,4,588,0,290,344,2,4,12
5203,1,2,4,516,1,337,345,1,4,12
5203,1,1,2,525,1,332,346,1,4,12
5203,1,2,4,339,0,452,347,2,4,12
5203,1,1,2,474,0,412,348,2,4,12
5203,1,2,3,478,0,381,349,2,4,12
5203,1,1,2,495,0,326,350,2,4,12
5203,1,2,4,364,0,446,351,2,4,12
5203,1,1,1,453,0,369,352,2,4,12
5203,1,1,1,319,1,352,353,1,4,12
5203,1,2,4,584,0,274,354,2,4,12
5203,1,1,2,402,1,286,355,1,4,12
5203,1,2,3,545,0,344,356,2,4,12
5203,1,2,4,432,0,282,357,2,4,12
5203,1,1,2,588,1,192,358,1,4,12
5203,1,2,3,461,0,392,359,2,4,12
5203,1,2,3,502,1,334,360,1,4,12
5203,1,1,1,314,0,418,361,2,4,12
5203,1,2,3,419,1,461,362,1,4,12
5203,1,1,1,334,0,404,363,2,4,12
5203,1,1,2,504,0,458,364,2,4,12
5203,1,1,1,579,0,335,365,2,4,12
5203,1,1,2,389,0,316,366,2,4,12
5203,1,2,4,437,1,214,367,1,4,12
5203,1,2,4,447,1,439,368,1,4,12
5204,1,1,1,447,1,443,17,1,1,2
5204,1,1,2,496,1,241,18,1,1,2
5204,1,2,3,599,1,529,19,1,1,2
5204,1,2,4,437,1,375,20,1,1,2
5204,1,1,1,386,1,253,21,1,1,2
5204,1,2,4,415,1,250,22,1,1,2
5204,1,1,1,406,1,279,23,1,1,2
5204,1,2,3,521,0,232,24,2,1,2
5204,1,2,3,338,1,284,25,1,1,2
5204,1,1,2,388,1,256,26,1,1,2
5204,1,2,4,317,0,269,27,2,1,2
5204,1,1,2,368,1,481,28,1,1,2
5204,1,1,2,328,0,276,29,2,1,2
5204,1,2,4,377,1,330,30,1,1,2
5204,1,1,1,540,0,237,31,2,1,2
5204,1,2,3,402,1,530,32,1,1,2
5204,1,1,1,575,0,211,33,2,1,2
5204,1,1,2,408,0,437,34,2,1,2
5204,1,2,3,431,1,513,35,1,1,2
5204,1,1,2,556,1,307,36,1,1,2
5204,1,1,1,543,1,279,37,1,1,2
5204,1,1,2,356,1,361,38,1,1,2
5204,1,1,1,466,1,217,39,1,1,2
5204,1,2,3,402,1,245,40,1,1,2
5204,1,1,2,491,1,415,41,1,1,2
5204,1,2,4,450,1,480,42,1,1,2
5204,1,1,1,429,1,224,43,1,1,2
5204,1,2,3,491,0,260,44,2,1,2
5204,1,2,3,318,1,363,45,1,1,2
5204,1,2,4,494,0,216,46,2,1,2
5204,1,2,4,360,1,269,47,1,1,2
5204,1,2,4,416,0,408,48,2,1,2
5204,1,2,3,487,1,357,49,1,4,3
5204,1,1,1,343,1,411,50,1,4,3
5204,1,2,3,492,0,342,51,2,4,3
5204,1,2,4,467,0,201,52,2,4,3
5204,1,2,4,333,1,393,53,1,4,3
5204,1,1,2,365,1,466,54,1,4,3
5204,1,2,4,485,1,650,55,1,4,3
5204,1,1,2,568,1,294,56,1,4,3
5204,1,1,2,492,1,224,57,1,4,3
5204,1,1,1,594,1,449,58,1,4,3
5204,1,1,1,550,1,277,59,1,4,3
5204,1,2,3,389,0,475,60,2,4,3
5204,1,2,4,396,0,361,61,2,4,3
5204,1,2,3,520,0,0,62,3,4,3
5204,1,1,1,514,0,0,63,3,4,3
5204,1,1,2,391,1,337,64,1,4,3
5204,1,2,4,392,1,456,65,1,4,3
5204,1,1,1,465,1,601,66,1,4,3
5204,1,2,4,483,1,229,67,1,4,3
5204,1,1,1,308,1,342,68,1,4,3
5204,1,2,4,385,1,233,69,1,4,3
5204,1,1,1,455,1,406,70,1,4,3
5204,1,1,2,521,1,365,71,1,4,3
5204,1,2,3,507,1,232,72,1,4,3
5204,1,1,2,345,1,274,73,1,4,3
5204,1,2,3,446,1,262,74,1,4,3
5204,1,1,2,367,1,283,75,1,4,3
5204,1,1,2,509,0,256,76,2,4,3
5204,1,2,3,572,0,206,77,2,4,3
5204,1,1,1,429,1,395,78,1,4,3
5204,1,2,3,469,1,471,79,1,4,3
5204,1,2,4,503,0,309,80,2,4,3
5204,1,1,2,565,1,415,81,1,4,4
5204,1,1,2,421,1,355,82,1,4,4
5204,1,1,2,585,1,346,83,1,4,4
5204,1,2,3,473,0,224,84,2,4,4
5204,1,1,1,355,1,286,85,1,4,4
5204,1,2,4,373,0,383,86,2,4,4
5204,1,2,4,322,1,332,87,1,4,4
5204,1,1,2,437,1,210,88,1,4,4
5204,1,2,3,487,0,373,89,2,4,4
5204,1,1,1,422,0,256,90,2,4,4
5204,1,1,1,515,1,283,91,1,4,4
5204,1,2,4,519,0,358,92,2,4,4
5204,1,2,4,500,0,335,93,2,4,4
5204,1,1,1,349,0,269,94,2,4,4
5204,1,2,3,312,1,212,95,1,4,4
5204,1,2,3,589,0,322,96,2,4,4
5204,1,2,3,393,1,222,97,1,4,4
5204,1,1,1,308,1,334,98,1,4,4
5204,1,1,2,341,1,514,99,1,4,4
5204,1,2,4,553,0,238,100,2,4,4
5204,1,2,3,348,0,251,101,2,4,4
5204,1,1,2,447,0,157,102,2,4,4
5204,1,2,4,435,0,0,103,3,4,4
5204,1,1,2,363,1,345,104,1,4,4
5204,1,1,1,427,1,421,105,1,4,4
5204,1,2,3,492,0,326,106,2,4,4
5204,1,2,3,570,1,457,107,1,4,4
5204,1,1,2,511,1,392,108,1,4,4
5204,1,2,4,572,0,297,109,2,4,4
5204,1,1,1,404,0,271,110,2,4,4
5204,1,1,1,484,1,328,111,1,4,4
5204,1,2,4,456,1,467,112,1,4,4
5204,1,1,1,386,1,256,113,1,4,5
5204,1,1,1,477,1,326,114,1,4,5
5204,1,2,3,470,0,358,115,2,4,5
5204,1,1,2,493,0,182,116,2,4,5
5204,1,2,3,377,0,0,117,3,4,5
5204,1,1,2,501,0,0,118,3,4,5
5204,1,1,1,426,1,327,119,1,4,5
5204,1,2,3,434,0,412,120,2,4,5
5204,1,2,4,545,0,26,121,2,4,5
5204,1,2,4,570,0,374,122,2,4,5
5204,1,1,2,479,1,216,123,1,4,5
5204,1,2,3,306,0,364,124,2,4,5
5204,1,1,2,482,1,556,125,1,4,5
5204,1,2,4,403,1,470,126,1,4,5
5204,1,1,1,443,0,257,127,2,4,5
5204,1,2,4,509,0,115,128,2,4,5
5204,1,1,1,598,0,0,129,3,4,5
5204,1,2,3,349,1,194,130,1,4,5
5204,1,2,3,597,1,434,131,1,4,5
5204,1,2,4,535,0,283,132,2,4,5
5204,1,1,2,505,1,306,133,1,4,5
5204,1,1,2,342,1,361,134,1,4,5
5204,1,2,4,531,1,647,135,1,4,5
5204,1,1,1,587,1,225,136,1,4,5
5204,1,2,4,440,1,522,137,1,4,5
5204,1,1,1,496,1,246,138,1,4,5
5204,1,2,3,549,0,197,139,2,4,5
5204,1,2,4,420,0,313,140,2,4,5
5204,1,1,2,454,1,312,141,1,4,5
5204,1,1,2,600,1,296,142,1,4,5
5204,1,1,1,367,1,383,143,1,4,5
5204,1,2,3,361,0,387,144,2,4,5
5204,1,1,1,565,1,298,145,1,4,6
5204,1,1,2,481,1,364,146,1,4,6
5204,1,2,3,516,1,583,147,1,4,6
5204,1,1,2,460,1,280,148,1,4,6
5204,1,1,1,506,1,350,149,1,4,6
5204,1,2,4,313,1,249,150,1,4,6
5204,1,2,3,570,1,207,151,1,4,6
5204,1,2,3,358,0,225,152,2,4,6
5204,1,2,4,360,0,272,153,2,4,6
5204,1,2,4,517,1,212,154,1,4,6
5204,1,2,4,530,0,350,155,2,4,6
5204,1,1,1,518,0,240,156,2,4,6
5204,1,1,2,550,0,52,157,2,4,6
5204,1,1,2,479,0,369,158,2,4,6
5204,1,2,3,367,0,284,159,2,4,6
5204,1,1,1,583,1,201,160,1,4,6
5204,1,1,2,302,1,368,161,1,4,6
5204,1,2,4,388,0,215,162,2,4,6
5204,1,1,1,504,0,225,163,2,4,6
5204,1,2,3,338,1,117,164,1,4,6
5204,1,2,3,535,0,224,165,2,4,6
5204,1,2,4,577,0,288,166,2,4,6
5204,1,1,2,476,0,0,167,3,4,6
5204,1,1,1,461,1,380,168,1,4,6
5204,1,1,1,500,1,370,169,1,4,6
5204,1,2,3,509,1,538,170,1,4,6
5204,1,2,4,428,1,532,171,1,4,6
5204,1,2,4,541,0,267,172,2,4,6
5204,1,2,3,351,0,347,173,2,4,6
5204,1,1,2,552,0,210,174,2,4,6
5204,1,1,2,372,1,320,175,1,4,6
5204,1,1,1,531,0,442,176,2,4,6
5204,1,1,2,592,1,363,177,1,4,7
5204,1,1,1,373,1,393,178,1,4,7
5204,1,1,2,531,1,339,179,1,4,7
5204,1,2,4,596,1,526,180,1,4,7
5204,1,1,1,404,1,315,181,1,4,7
5204,1,2,4,377,0,379,182,2,4,7
5204,1,1,1,397,1,436,183,1,4,7
5204,1,2,3,540,0,315,184,2,4,7
5204,1,1,2,336,0,259,185,2,4,7
5204,1,2,4,453,1,496,186,1,4,7
5204,1,1,2,417,1,451,187,1,4,7
5204,1,1,1,586,1,371,188,1,4,7
5204,1,2,3,329,1,554,189,1,4,7
5204,1,2,4,310,1,501,190,1,4,7
5204,1,2,3,493,1,561,191,1,4,7
5204,1,2,3,441,0,353,192,2,4,7
5204,1,2,3,507,1,248,193,1,4,7
5204,1,1,2,558,1,463,194,1,4,7
5204,1,1,1,314,1,341,195,1,4,7
5204,1,2,3,367,1,597,196,1,4,7
5204,1,2,4,583,1,454,197,1,4,7
5204,1,2,4,554,0,288,198,2,4,7
5204,1,2,4,300,1,392,199,1,4,7
5204,1,1,2,397,1,363,200,1,4,7
5204,1,1,2,417,0,273,201,2,4,7
5204,1,1,1,385,0,203,202,2,4,7
5204,1,1,2,350,0,300,203,2,4,7
5204,1,2,4,401,1,545,204,1,4,7
5204,1,2,3,429,0,311,205,2,4,7
5204,1,1,1,348,1,326,206,1,4,7
5204,1,1,1,600,1,340,207,1,4,7
5204,1,2,3,438,1,510,208,1,4,7
5204,1,1,1,321,1,593,209,1,4,8
5204,1,1,1,347,1,432,210,1,4,8
5204,1,2,3,329,1,579,211,1,4,8
5204,1,1,2,370,1,469,212,1,4,8
5204,1,1,2,596,1,394,213,1,4,8
5204,1,1,2,510,1,357,214,1,4,8
5204,1,2,4,464,1,680,215,1,4,8
5204,1,1,1,409,1,487,216,1,4,8
5204,1,1,2,501,1,359,217,1,4,8
5204,1,2,4,528,1,557,218,1,4,8
5204,1,2,4,536,1,328,219,1,4,8
5204,1,2,3,508,1,575,220,1,4,8
5204,1,2,3,539,0,359,221,2,4,8
5204,1,2,3,322,1,520,222,1,4,8
5204,1,2,4,536,1,454,223,1,4,8
5204,1,1,1,437,1,355,224,1,4,8
5204,1,2,4,495,1,428,225,1,4,8
5204,1,2,4,557,0,326,226,2,4,8
5204,1,1,1,395,0,214,227,2,4,8
5204,1,1,1,351,1,203,228,1,4,8
5204,1,2,3,300,0,321,229,2,4,8
5204,1,1,1,393,1,209,230,1,4,8
5204,1,2,4,323,1,469,231,1,4,8
5204,1,2,3,550,0,527,232,2,4,8
5204,1,2,3,442,1,550,233,1,4,8
5204,1,1,1,312,1,547,234,1,4,8
5204,1,2,4,436,1,495,235,1,4,8
5204,1,1,2,564,1,544,236,1,4,8
5204,1,1,2,431,1,528,237,1,4,8
5204,1,1,2,482,1,393,238,1,4,8
5204,1,2,3,360,1,566,239,1,4,8
5204,1,1,2,326,1,498,240,1,4,8
5204,1,2,4,475,1,539,241,1,2,9
5204,1,1,1,462,1,489,242,1,2,9
5204,1,1,2,313,1,472,243,1,2,9
5204,1,1,1,598,1,416,244,1,2,9
5204,1,2,4,580,1,486,245,1,2,9
5204,1,1,2,531,1,490,246,1,2,9
5204,1,2,4,426,1,495,247,1,2,9
5204,1,1,2,323,1,481,248,1,2,9
5204,1,1,1,533,1,474,249,1,2,9
5204,1,2,3,556,0,333,250,2,2,9
5204,1,2,3,455,1,435,251,1,2,9
5204,1,2,4,360,1,508,252,1,2,9
5204,1,1,1,525,1,454,253,1,2,9
5204,1,1,2,304,1,531,254,1,2,9
5204,1,2,3,522,1,332,255,1,2,9
5204,1,2,3,387,1,403,256,1,2,9
5204,1,2,4,370,0,392,257,2,2,9
5204,1,2,3,361,1,476,258,1,2,9
5204,1,1,1,302,1,367,259,1,2,9
5204,1,1,2,412,1,318,260,1,2,9
5204,1,2,4,353,0,240,261,2,2,9
5204,1,1,1,377,0,198,262,2,2,9
5204,1,1,1,401,1,305,263,1,2,9
5204,1,1,2,342,1,300,264,1,2,9
5204,1,1,1,588,1,341,265,1,2,9
5204,1,2,3,307,0,248,266,2,2,9
5204,1,2,3,417,1,147,267,1,2,9
5204,1,2,4,463,0,351,268,2,2,9
5204,1,1,2,516,1,377,269,1,2,9
5204,1,2,3,576,1,329,270,1,2,9
5204,1,1,2,416,1,362,271,1,2,9
5204,1,2,4,338,1,447,272,1,2,9
5204,1,1,1,442,1,369,273,1,2,10
5204,1,2,3,327,0,404,274,2,2,10
5204,1,1,1,487,1,306,275,1,2,10
5204,1,2,3,470,1,465,276,1,2,10
5204,1,1,2,433,1,358,277,1,2,10
5204,1,2,3,404,1,404,278,1,2,10
5204,1,1,2,451,1,409,279,1,2,10
5204,1,2,4,336,1,533,280,1,2,10
5204,1,1,1,596,0,360,281,2,2,10
5204,1,1,2,548,0,293,282,2,2,10
5204,1,2,4,382,1,370,283,1,2,10
5204,1,2,4,520,1,312,284,1,2,10
5204,1,1,1,551,1,307,285,1,2,10
5204,1,1,2,425,1,338,286,1,2,10
5204,1,2,4,301,0,293,287,2,2,10
5204,1,2,3,356,0,180,288,2,2,10
5204,1,1,1,547,1,350,289,1,2,10
5204,1,1,1,548,1,342,290,1,2,10
5204,1,1,1,384,1,333,291,1,2,10
5204,1,2,3,551,0,394,292,2,2,10
5204,1,2,4,345,0,216,293,2,2,10
5204,1,1,1,599,1,357,294,1,2,10
5204,1,2,4,525,1,406,295,1,2,10
5204,1,1,2,393,0,230,296,2,2,10
5204,1,1,2,384,1,219,297,1,2,10
5204,1,2,4,432,1,257,298,1,2,10
5204,1,1,2,473,1,306,299,1,2,10
5204,1,2,3,595,0,378,300,2,2,10
5204,1,2,3,562,1,228,301,1,2,10
5204,1,2,4,490,0,315,302,2,2,10
5204,1,1,2,328,1,137,303,1,2,10
5204,1,2,3,559,1,442,304,1,2,10
5204,1,2,3,565,1,222,305,1,4,11
5204,1,1,2,541,1,329,306,1,4,11
5204,1,2,4,396,0,274,307,2,4,11
5204,1,2,4,308,1,205,308,1,4,11
5204,1,1,1,367,0,257,309,2,4,11
5204,1,2,3,528,0,316,310,2,4,11
5204,1,2,3,579,0,0,311,3,4,11
5204,1,2,4,390,0,253,312,2,4,11
5204,1,1,1,487,0,247,313,2,4,11
5204,1,1,1,519,0,0,314,3,4,11
5204,1,1,1,314,1,313,315,1,4,11
5204,1,2,3,418,1,442,316,1,4,11
5204,1,2,4,300,0,158,317,2,4,11
5204,1,1,2,584,1,167,318,1,4,11
5204,1,1,2,373,0,238,319,2,4,11
5204,1,1,2,350,1,332,320,1,4,11
5204,1,1,1,338,0,185,321,2,4,11
5204,1,2,4,476,0,175,322,2,4,11
5204,1,1,1,568,1,323,323,1,4,11
5204,1,1,2,475,1,436,324,1,4,11
5204,1,2,4,324,0,392,325,2,4,11
5204,1,1,2,351,1,118,326,1,4,11
5204,1,2,3,323,1,299,327,1,4,11
5204,1,2,3,497,0,331,328,2,4,11
5204,1,1,2,536,1,590,329,1,4,11
5204,1,1,1,408,0,177,330,2,4,11
5204,1,2,4,355,0,234,331,2,4,11
5204,1,1,2,545,0,0,332,3,4,11
5204,1,1,1,557,1,318,333,1,4,11
5204,1,2,3,532,0,211,334,2,4,11
5204,1,2,3,339,1,236,335,1,4,11
5204,1,2,4,450,1,479,336,1,4,11
5204,1,1,2,324,1,652,337,1,4,12
5204,1,2,3,437,1,464,338,1,4,12
5204,1,2,3,322,1,404,339,1,4,12
5204,1,2,3,377,1,345,340,1,4,12
5204,1,1,1,401,1,339,341,1,4,12
5204,1,1,2,415,1,412,342,1,4,12
5204,1,2,4,477,0,311,343,2,4,12
5204,1,1,2,350,1,189,344,1,4,12
5204,1,2,4,374,1,469,345,1,4,12
5204,1,2,4,497,1,414,346,1,4,12
5204,1,1,1,501,1,379,347,1,4,12
5204,1,2,3,336,1,495,348,1,4,12
5204,1,1,1,464,1,320,349,1,4,12
5204,1,1,2,593,1,372,350,1,4,12
5204,1,2,4,518,0,246,351,2,4,12
5204,1,1,1,442,0,138,352,2,4,12
5204,1,1,1,567,1,344,353,1,4,12
5204,1,2,4,594,0,333,354,2,4,12
5204,1,2,4,323,1,381,355,1,4,12
5204,1,1,2,574,1,391,356,1,4,12
5204,1,2,3,324,1,509,357,1,4,12
5204,1,2,3,326,0,765,358,2,4,12
5204,1,2,4,422,1,513,359,1,4,12
5204,1,1,1,593,1,393,360,1,4,12
5204,1,2,3,315,0,328,361,2,4,12
5204,1,2,4,569,1,668,362,1,4,12
5204,1,1,2,308,1,327,363,1,4,12
5204,1,1,1,554,1,366,364,1,4,12
5204,1,1,2,335,1,233,365,1,4,12
5204,1,1,1,444,1,345,366,1,4,12
5204,1,1,2,538,1,294,367,1,4,12
5204,1,2,3,473,1,280,368,1,4,12
5205,1,1,1,394,1,637,17,1,1,2
5205,1,1,2,463,1,335,18,1,1,2
5205,1,1,2,527,0,298,19,2,1,2
5205,1,2,4,363,1,992,20,1,1,2
5205,1,2,3,491,0,236,21,2,1,2
5205,1,1,1,524,0,457,22,2,1,2
5205,1,2,3,359,1,64,23,1,1,2
5205,1,2,4,424,1,727,24,1,1,2
5205,1,2,4,457,0,273,25,2,1,2
5205,1,2,3,600,0,353,26,2,1,2
5205,1,1,1,330,0,649,27,2,1,2
5205,1,1,2,492,0,0,28,3,1,2
5205,1,2,3,564,0,290,29,2,1,2
5205,1,2,4,415,0,675,30,2,1,2
5205,1,1,1,551,0,232,31,2,1,2
5205,1,1,2,443,0,246,32,2,1,2
5205,1,1,1,542,1,540,33,1,1,2
5205,1,1,1,544,1,294,34,1,1,2
5205,1,1,2,474,1,288,35,1,1,2
5205,1,1,1,448,1,247,36,1,1,2
5205,1,1,2,351,1,318,37,1,1,2
5205,1,2,3,380,1,92,38,1,1,2
5205,1,2,4,555,1,762,39,1,1,2
5205,1,2,4,374,0,269,40,2,1,2
5205,1,2,4,459,1,168,41,1,1,2
5205,1,1,2,499,1,395,42,1,1,2
5205,1,2,4,482,0,528,43,2,1,2
5205,1,1,2,552,1,55,44,1,1,2
5205,1,2,3,520,0,254,45,2,1,2
5205,1,2,3,398,0,462,46,2,1,2
5205,1,1,1,548,1,311,47,1,1,2
5205,1,2,3,596,1,251,48,1,1,2
5205,1,1,2,329,1,415,49,1,4,3
5205,1,1,2,433,1,325,50,1,4,3
5205,1,2,3,504,0,290,51,2,4,3
5205,1,1,2,537,0,257,52,2,4,3
5205,1,1,2,412,1,282,53,1,4,3
5205,1,2,4,585,1,287,54,1,4,3
5205,1,1,1,462,1,572,55,1,4,3
5205,1,2,4,585,1,318,56,1,4,3
5205,1,2,3,353,1,296,57,1,4,3
5205,1,2,3,575,0,254,58,2,4,3
5205,1,1,1,515,0,503,59,2,4,3
5205,1,2,3,489,0,0,60,3,4,3
5205,1,2,4,454,0,277,61,2,4,3
5205,1,2,4,468,1,307,62,1,4,3
5205,1,1,1,486,1,484,63,1,4,3
5205,1,1,1,513,0,352,64,2,4,3
5205,1,2,3,574,1,119,65,1,4,3
5205,1,1,2,556,0,352,66,2,4,3
5205,1,2,4,357,0,603,67,2,4,3
5205,1,1,2,525,1,438,68,1,4,3
5205,1,1,1,364,0,457,69,2,4,3
5205,1,2,3,508,1,674,70,1,4,3
5205,1,2,4,479,1,382,71,1,4,3
5205,1,1,1,316,1,642,72,1,4,3
5205,1,2,3,597,0,0,73,3,4,3
5205,1,2,4,460,1,490,74,1,4,3
5205,1,2,3,491,1,661,75,1,4,3
5205,1,1,2,492,1,398,76,1,4,3
5205,1,1,1,507,1,277,77,1,4,3
5205,1,2,4,335,1,313,78,1,4,3
5205,1,1,2,470,0,83,79,2,4,3
5205,1,1,1,382,1,172,80,1,4,3
5205,1,2,4,499,1,326,81,1,4,4
5205,1,1,1,461,0,471,82,2,4,4
5205,1,1,2,488,1,720,83,1,4,4
5205,1,2,4,590,1,181,84,1,4,4
5205,1,2,3,480,0,329,85,2,4,4
5205,1,2,3,568,1,447,86,1,4,4
5205,1,1,1,481,0,389,87,2,4,4
5205,1,1,2,556,1,604,88,1,4,4
5205,1,2,4,589,1,335,89,1,4,4
5205,1,2,3,303,1,541,90,1,4,4
5205,1,1,2,335,1,322,91,1,4,4
5205,1,2,3,404,1,418,92,1,4,4
5205,1,1,1,534,0,456,93,2,4,4
5205,1,1,1,502,1,93,94,1,4,4
5205,1,1,2,315,0,273,95,2,4,4
5205,1,2,4,557,1,786,96,1,4,4
5205,1,1,2,529,1,256,97,1,4,4
5205,1,2,4,562,0,529,98,2,4,4
5205,1,1,1,470,0,0,99,3,4,4
5205,1,2,4,358,1,335,100,1,4,4
5205,1,2,4,312,0,416,101,2,4,4
5205,1,2,3,529,1,928,102,1,4,4
5205,1,1,2,479,1,306,103,1,4,4
5205,1,1,2,595,0,333,104,2,4,4
5205,1,1,1,401,0,315,105,2,4,4
5205,1,1,1,472,1,666,106,1,4,4
5205,1,2,3,419,0,602,107,2,4,4
5205,1,2,3,448,1,23,108,1,4,4
5205,1,1,2,412,1,318,109,1,4,4
5205,1,2,3,358,0,446,110,2,4,4
5205,1,1,1,352,0,406,111,2,4,4
5205,1,2,4,535,0,97,112,2,4,4
5205,1,1,2,555,1,494,113,1,4,5
5205,1,1,2,546,1,388,114,1,4,5
5205,1,2,3,424,0,303,115,2,4,5
5205,1,2,4,375,1,262,116,1,4,5
5205,1,1,2,445,0,163,117,2,4,5
5205,1,1,1,556,0,290,118,2,4,5
5205,1,2,3,539,0,336,119,2,4,5
5205,1,2,3,520,0,248,120,2,4,5
5205,1,1,1,586,0,99,121,2,4,5
5205,1,1,1,453,0,460,122,2,4,5
5205,1,1,1,367,1,41,123,1,4,5
5205,1,2,4,496,1,232,124,1,4,5
5205,1,2,3,531,1,424,125,1,4,5
5205,1,1,2,565,1,270,126,1,4,5
5205,1,2,4,404,0,259,127,2,4,5
5205,1,2,4,389,1,211,128,1,4,5
5205,1,2,3,432,0,344,129,2,4,5
5205,1,1,1,322,1,330,130,1,4,5
5205,1,1,2,367,0,272,131,2,4,5
5205,1,1,2,383,1,467,132,1,4,5
5205,1,2,4,531,0,244,133,2,4,5
5205,1,2,4,437,1,243,134,1,4,5
5205,1,2,4,442,1,370,135,1,4,5
5205,1,1,1,324,1,411,136,1,4,5
5205,1,2,3,584,0,111,137,2,4,5
5205,1,1,1,551,1,314,138,1,4,5
5205,1,1,2,469,1,518,139,1,4,5
5205,1,1,2,492,0,300,140,2,4,5
5205,1,2,3,477,0,247,141,2,4,5
5205,1,2,3,415,1,357,142,1,4,5
5205,1,1,1,434,0,447,143,2,4,5
5205,1,2,4,467,0,151,144,2,4,5
5205,1,2,3,401,1,302,145,1,4,6
5205,1,1,2,325,1,322,146,1,4,6
5205,1,2,3,347,1,297,147,1,4,6
5205,1,2,3,335,0,228,148,2,4,6
5205,1,1,2,542,0,43,149,2,4,6
5205,1,1,1,484,0,335,150,2,4,6
5205,1,1,1,321,1,765,151,1,4,6
5205,1,2,4,337,1,909,152,1,4,6
5205,1,1,1,471,0,0,153,3,4,6
5205,1,1,2,503,0,260,154,2,4,6
5205,1,2,4,357,1,484,155,1,4,6
5205,1,1,2,373,0,328,156,2,4,6
5205,1,2,4,557,0,0,157,3,4,6
5205,1,1,1,360,1,410,158,1,4,6
5205,1,2,4,573,1,494,159,1,4,6
5205,1,2,3,457,1,303,160,1,4,6
5205,1,1,2,564,1,275,161,1,4,6
5205,1,2,4,544,0,308,162,2,4,6
5205,1,1,1,377,0,247,163,2,4,6
5205,1,1,1,325,1,214,164,1,4,6
5205,1,2,4,317,1,375,165,1,4,6
5205,1,1,1,598,1,187,166,1,4,6
5205,1,2,4,547,1,194,167,1,4,6
5205,1,2,3,403,1,222,168,1,4,6
5205,1,1,2,364,1,510,169,1,4,6
5205,1,1,2,440,0,407,170,2,4,6
5205,1,1,2,346,1,23,171,1,4,6
5205,1,1,1,534,0,263,172,2,4,6
5205,1,2,3,453,1,435,173,1,4,6
5205,1,2,4,374,1,280,174,1,4,6
5205,1,2,3,431,1,124,175,1,4,6
5205,1,2,3,577,0,210,176,2,4,6
5205,1,1,2,416,1,462,177,1,4,7
5205,1,2,4,395,0,304,178,2,4,7
5205,1,1,2,486,0,0,179,3,4,7
5205,1,1,1,355,1,270,180,1,4,7
5205,1,1,1,555,0,346,181,2,4,7
5205,1,2,3,438,1,242,182,1,4,7
5205,1,2,4,521,1,247,183,1,4,7
5205,1,2,3,521,1,241,184,1,4,7
5205,1,2,4,339,1,250,185,1,4,7
5205,1,1,1,469,1,278,186,1,4,7
5205,1,1,2,329,1,656,187,1,4,7
5205,1,1,1,510,1,248,188,1,4,7
5205,1,2,3,387,0,434,189,2,4,7
5205,1,2,4,390,0,382,190,2,4,7
5205,1,1,2,384,1,29,191,1,4,7
5205,1,2,3,444,0,228,192,2,4,7
5205,1,2,3,550,1,274,193,1,4,7
5205,1,2,4,350,0,343,194,2,4,7
5205,1,1,2,379,1,396,195,1,4,7
5205,1,2,4,486,0,323,196,2,4,7
5205,1,2,4,514,0,438,197,2,4,7
5205,1,2,4,443,1,483,198,1,4,7
5205,1,1,2,594,0,293,199,2,4,7
5205,1,2,3,476,0,574,200,2,4,7
5205,1,1,2,364,0,0,201,3,4,7
5205,1,1,1,539,1,136,202,1,4,7
5205,1,2,3,519,0,0,203,3,4,7
5205,1,1,1,475,1,195,204,1,4,7
5205,1,1,1,497,0,166,205,2,4,7
5205,1,1,2,341,1,703,206,1,4,7
5205,1,1,1,417,1,813,207,1,4,7
5205,1,2,3,309,0,297,208,2,4,7
5205,1,1,2,500,1,546,209,1,4,8
5205,1,1,1,512,0,313,210,2,4,8
5205,1,2,3,579,1,299,211,1,4,8
5205,1,2,3,352,0,261,212,2,4,8
5205,1,1,2,463,1,533,213,1,4,8
5205,1,2,4,568,0,310,214,2,4,8
5205,1,1,1,533,0,180,215,2,4,8
5205,1,2,4,450,1,393,216,1,4,8
5205,1,1,1,319,1,399,217,1,4,8
5205,1,1,2,331,0,186,218,2,4,8
5205,1,2,3,371,1,399,219,1,4,8
5205,1,2,4,304,1,810,220,1,4,8
5205,1,2,3,548,0,276,221,2,4,8
5205,1,1,1,577,1,335,222,1,4,8
5205,1,2,4,519,1,286,223,1,4,8
5205,1,1,2,554,0,493,224,2,4,8
5205,1,2,3,578,0,96,225,2,4,8
5205,1,1,2,354,1,340,226,1,4,8
5205,1,2,3,337,1,407,227,1,4,8
5205,1,1,2,370,1,246,228,1,4,8
5205,1,1,1,414,1,171,229,1,4,8
5205,1,2,3,348,0,260,230,2,4,8
5205,1,2,4,585,1,378,231,1,4,8
5205,1,1,1,430,1,347,232,1,4,8
5205,1,1,1,576,0,261,233,2,4,8
5205,1,2,4,460,0,244,234,2,4,8
5205,1,2,4,556,1,47,235,1,4,8
5205,1,1,2,499,1,26,236,1,4,8
5205,1,2,4,588,1,129,237,1,4,8
5205,1,1,1,442,1,674,238,1,4,8
5205,1,1,2,464,1,279,239,1,4,8
5205,1,2,3,368,1,311,240,1,4,8
5205,1,1,2,445,1,299,241,1,4,9
5205,1,1,1,553,0,221,242,2,4,9
5205,1,2,4,308,1,351,243,1,4,9
5205,1,1,1,472,0,435,244,2,4,9
5205,1,2,4,331,0,43,245,2,4,9
5205,1,2,4,467,1,344,246,1,4,9
5205,1,2,3,323,1,162,247,1,4,9
5205,1,2,4,427,1,326,248,1,4,9
5205,1,1,2,357,0,8,249,2,4,9
5205,1,1,1,546,1,556,250,1,4,9
5205,1,1,2,354,1,212,251,1,4,9
5205,1,1,1,462,1,246,252,1,4,9
5205,1,2,3,336,0,286,253,2,4,9
5205,1,1,2,368,0,113,254,2,4,9
5205,1,2,3,417,0,554,255,2,4,9
5205,1,2,3,497,0,351,256,2,4,9
5205,1,2,3,511,0,98,257,2,4,9
5205,1,2,3,458,1,56,258,1,4,9
5205,1,2,3,512,1,572,259,1,4,9
5205,1,2,4,306,1,409,260,1,4,9
5205,1,1,2,564,0,529,261,2,4,9
5205,1,1,1,356,0,188,262,2,4,9
5205,1,2,4,375,1,564,263,1,4,9
5205,1,1,1,516,1,515,264,1,4,9
5205,1,1,1,395,0,0,265,3,4,9
5205,1,2,4,563,1,261,266,1,4,9
5205,1,1,2,348,1,472,267,1,4,9
5205,1,1,2,464,1,169,268,1,4,9
5205,1,1,2,589,0,92,269,2,4,9
5205,1,1,1,454,0,199,270,2,4,9
5205,1,2,4,594,0,211,271,2,4,9
5205,1,2,3,512,0,223,272,2,4,9
5205,1,1,2,341,1,276,273,1,4,10
5205,1,1,2,357,1,368,274,1,4,10
5205,1,1,1,473,0,267,275,2,4,10
5205,1,2,4,326,1,364,276,1,4,10
5205,1,2,3,377,1,417,277,1,4,10
5205,1,2,4,472,1,344,278,1,4,10
5205,1,2,4,549,0,226,279,2,4,10
5205,1,2,3,525,0,184,280,2,4,10
5205,1,2,3,344,0,17,281,2,4,10
5205,1,1,1,343,0,163,282,2,4,10
5205,1,1,2,474,1,529,283,1,4,10
5205,1,1,1,562,1,302,284,1,4,10
5205,1,2,3,555,1,126,285,1,4,10
5205,1,2,4,532,0,113,286,2,4,10
5205,1,1,2,494,0,163,287,2,4,10
5205,1,1,1,388,0,442,288,2,4,10
5205,1,1,1,554,0,330,289,2,4,10
5205,1,1,2,377,1,104,290,1,4,10
5205,1,1,1,305,0,122,291,2,4,10
5205,1,1,2,340,1,26,292,1,4,10
5205,1,2,4,584,0,0,293,3,4,10
5205,1,2,3,516,0,1005,294,2,4,10
5205,1,2,4,575,1,564,295,1,4,10
5205,1,2,4,361,1,327,296,1,4,10
5205,1,2,4,545,1,428,297,1,4,10
5205,1,1,2,396,1,411,298,1,4,10
5205,1,2,3,320,1,44,299,1,4,10
5205,1,1,1,397,1,5,300,1,4,10
5205,1,2,3,323,1,285,301,1,4,10
5205,1,2,3,458,1,89,302,1,4,10
5205,1,1,2,358,0,0,303,3,4,10
5205,1,1,1,554,0,92,304,2,4,10
5205,1,1,1,594,0,347,305,2,4,11
5205,1,1,2,597,0,94,306,2,4,11
5205,1,2,4,570,0,254,307,2,4,11
5205,1,1,2,362,1,353,308,1,4,11
5205,1,2,4,463,1,260,309,1,4,11
5205,1,1,1,588,0,11,310,2,4,11
5205,1,1,1,366,0,321,311,2,4,11
5205,1,2,3,517,0,331,312,2,4,11
5205,1,2,4,461,1,239,313,1,4,11
5205,1,2,4,487,0,168,314,2,4,11
5205,1,1,2,389,0,528,315,2,4,11
5205,1,2,3,515,0,207,316,2,4,11
5205,1,2,3,563,1,779,317,1,4,11
5205,1,2,3,350,0,165,318,2,4,11
5205,1,1,1,570,0,0,319,3,4,11
5205,1,1,2,424,1,286,320,1,4,11
5205,1,1,1,423,1,420,321,1,4,11
5205,1,2,3,449,0,178,322,2,4,11
5205,1,1,1,350,0,0,323,3,4,11
5205,1,2,4,319,1,343,324,1,4,11
5205,1,2,3,332,1,460,325,1,4,11
5205,1,1,2,314,1,255,326,1,4,11
5205,1,2,4,420,0,96,327,2,4,11
5205,1,2,3,522,0,0,328,3,4,11
5205,1,1,1,347,1,291,329,1,4,11
5205,1,1,2,482,1,432,330,1,4,11
5205,1,1,2,394,0,228,331,2,4,11
5205,1,2,4,498,1,251,332,1,4,11
5205,1,2,4,431,0,260,333,2,4,11
5205,1,1,1,362,0,295,334,2,4,11
5205,1,1,2,429,0,220,335,2,4,11
5205,1,2,3,585,0,16,336,2,4,11
5205,1,2,3,487,1,768,337,1,4,12
5205,1,2,4,462,0,161,338,2,4,12
5205,1,2,3,586,0,96,339,2,4,12
5205,1,1,2,528,1,410,340,1,4,12
5205,1,1,1,456,0,590,341,2,4,12
5205,1,2,4,328,1,393,342,1,4,12
5205,1,1,1,596,0,119,343,2,4,12
5205,1,2,4,559,1,106,344,1,4,12
5205,1,1,2,453,0,356,345,2,4,12
5205,1,1,2,573,1,15,346,1,4,12
5205,1,1,1,333,1,206,347,1,4,12
5205,1,2,4,528,1,352,348,1,4,12
5205,1,2,3,500,1,47,349,1,4,12
5205,1,1,1,301,0,493,350,2,4,12
5205,1,1,2,508,0,223,351,2,4,12
5205,1,2,3,503,0,319,352,2,4,12
5205,1,1,1,382,1,241,353,1,4,12
5205,1,2,3,316,0,298,354,2,4,12
5205,1,2,3,372,1,253,355,1,4,12
5205,1,1,1,349,0,260,356,2,4,12
5205,1,2,4,340,0,480,357,2,4,12
5205,1,1,2,546,1,124,358,1,4,12
5205,1,1,2,311,1,395,359,1,4,12
5205,1,1,1,581,1,79,360,1,4,12
5205,1,2,4,465,0,179,361,2,4,12
5205,1,1,2,579,0,150,362,2,4,12
5205,1,1,1,472,0,203,363,2,4,12
5205,1,2,3,422,0,165,364,2,4,12
5205,1,1,2,586,0,753,365,2,4,12
5205,1,2,3,598,1,773,366,1,4,12
5205,1,2,4,527,0,251,367,2,4,12
5205,1,2,4,301,0,989,368,2,4,12
5206,1,1,1,499,1,517,17,1,1,2
5206,1,2,3,464,0,306,18,2,1,2
5206,1,2,3,424,1,734,19,1,1,2
5206,1,1,1,486,1,371,20,1,1,2
5206,1,1,2,328,1,455,21,1,1,2
5206,1,1,2,310,1,451,22,1,1,2
5206,1,2,4,496,0,373,23,2,1,2
5206,1,1,1,474,1,405,24,1,1,2
5206,1,2,3,427,0,354,25,2,1,2
5206,1,1,1,422,1,335,26,1,1,2
5206,1,2,3,531,0,371,27,2,1,2
5206,1,2,4,453,1,608,28,1,1,2
5206,1,2,4,364,1,463,29,1,1,2
5206,1,2,4,335,1,427,30,1,1,2
5206,1,1,2,527,1,408,31,1,1,2
5206,1,1,2,584,1,360,32,1,1,2
5206,1,2,3,407,0,346,33,2,1,2
5206,1,2,3,492,1,494,34,1,1,2
5206,1,2,4,482,1,389,35,1,1,2
5206,1,2,4,425,1,534,36,1,1,2
5206,1,1,2,460,1,446,37,1,1,2
5206,1,1,2,442,1,356,38,1,1,2
5206,1,1,1,315,1,446,39,1,1,2
5206,1,2,4,458,1,517,40,1,1,2
5206,1,1,1,486,1,422,41,1,1,2
5206,1,1,1,373,1,414,42,1,1,2
5206,1,2,3,532,0,263,43,2,1,2
5206,1,2,3,565,1,269,44,1,1,2
5206,1,1,2,448,1,625,45,1,1,2
5206,1,1,1,434,1,439,46,1,1,2
5206,1,1,2,375,1,495,47,1,1,2
5206,1,2,4,453,1,486,48,1,1,2
5206,1,2,3,342,1,570,49,1,2,3
5206,1,1,2,350,1,309,50,1,2,3
5206,1,2,3,594,1,420,51,1,2,3
5206,1,1,1,591,1,415,52,1,2,3
5206,1,1,2,558,1,428,53,1,2,3
5206,1,2,4,373,1,442,54,1,2,3
5206,1,1,1,589,1,428,55,1,2,3
5206,1,2,3,363,1,508,56,1,2,3
5206,1,1,1,310,1,385,57,1,2,3
5206,1,2,4,553,1,506,58,1,2,3
5206,1,2,3,540,1,476,59,1,2,3
5206,1,1,1,562,0,0,60,3,2,3
5206,1,2,4,300,0,323,61,2,2,3
5206,1,2,4,521,0,315,62,2,2,3
5206,1,1,2,392,1,511,63,1,2,3
5206,1,1,2,538,1,412,64,1,2,3
5206,1,1,1,491,1,611,65,1,2,3
5206,1,2,3,328,1,521,66,1,2,3
5206,1,2,3,406,1,638,67,1,2,3
5206,1,2,4,585,0,305,68,2,2,3
5206,1,2,3,421,1,454,69,1,2,3
5206,1,1,2,416,1,419,70,1,2,3
5206,1,1,2,477,1,353,71,1,2,3
5206,1,2,3,518,0,334,72,2,2,3
5206,1,1,2,530,1,426,73,1,2,3
5206,1,1,1,483,1,570,74,1,2,3
5206,1,1,1,576,1,539,75,1,2,3
5206,1,1,2,499,1,685,76,1,2,3
5206,1,2,4,555,1,1070,77,1,2,3
5206,1,2,4,327,1,649,78,1,2,3
5206,1,2,4,536,1,663,79,1,2,3
5206,1,1,1,446,1,505,80,1,2,3
5206,1,2,3,330,1,901,81,1,2,4
5206,1,1,1,344,1,399,82,1,2,4
5206,1,1,2,512,1,421,83,1,2,4
5206,1,1,1,421,1,423,84,1,2,4
5206,1,2,3,333,1,529,85,1,2,4
5206,1,1,2,389,1,405,86,1,2,4
5206,1,2,3,533,1,774,87,1,2,4
5206,1,1,1,570,1,620,88,1,2,4
5206,1,2,4,596,1,583,89,1,2,4
5206,1,2,4,344,1,527,90,1,2,4
5206,1,2,4,396,1,463,91,1,2,4
5206,1,2,3,489,1,483,92,1,2,4
5206,1,1,2,377,1,440,93,1,2,4
5206,1,2,4,371,0,407,94,2,2,4
5206,1,1,1,442,1,498,95,1,2,4
5206,1,1,2,484,1,425,96,1,2,4
5206,1,1,2,347,1,422,97,1,2,4
5206,1,1,1,417,1,455,98,1,2,4
5206,1,2,3,542,0,396,99,2,2,4
5206,1,1,1,558,1,407,100,1,2,4
5206,1,1,1,320,1,468,101,1,2,4
5206,1,1,2,460,1,446,102,1,2,4
5206,1,2,4,372,1,441,103,1,2,4
5206,1,2,4,372,1,467,104,1,2,4
5206,1,1,2,472,1,429,105,1,2,4
5206,1,1,1,429,1,442,106,1,2,4
5206,1,2,4,420,1,526,107,1,2,4
5206,1,2,3,381,1,448,108,1,2,4
5206,1,2,4,529,1,473,109,1,2,4
5206,1,1,2,424,0,475,110,2,2,4
5206,1,2,3,446,1,907,111,1,2,4
5206,1,2,3,468,1,572,112,1,2,4
5206,1,2,4,570,1,519,113,1,3,5
5206,1,1,2,564,0,268,114,2,3,5
5206,1,2,3,427,1,421,115,1,3,5
5206,1,1,2,495,1,385,116,1,3,5
5206,1,1,1,368,1,522,117,1,3,5
5206,1,2,3,560,1,439,118,1,3,5
5206,1,1,2,500,1,903,119,1,3,5
5206,1,2,3,548,1,521,120,1,3,5
5206,1,2,4,596,1,474,121,1,3,5
5206,1,1,1,543,1,289,122,1,3,5
5206,1,1,2,352,1,403,123,1,3,5
5206,1,2,4,580,0,420,124,2,3,5
5206,1,1,1,552,1,625,125,1,3,5
5206,1,1,1,451,0,235,126,2,3,5
5206,1,2,4,428,0,293,127,2,3,5
5206,1,2,3,535,0,263,128,2,3,5
5206,1,2,4,300,0,0,129,3,3,5
5206,1,2,3,510,1,507,130,1,3,5
5206,1,2,4,586,1,286,131,1,3,5
5206,1,1,2,341,1,409,132,1,3,5
5206,1,1,2,404,1,336,133,1,3,5
5206,1,2,3,577,0,379,134,2,3,5
5206,1,1,1,518,1,372,135,1,3,5
5206,1,2,3,415,1,321,136,1,3,5
5206,1,2,4,558,1,955,137,1,3,5
5206,1,2,3,461,0,338,138,2,3,5
5206,1,1,2,554,0,221,139,2,3,5
5206,1,1,1,501,1,271,140,1,3,5
5206,1,1,2,540,1,437,141,1,3,5
5206,1,1,1,422,1,433,142,1,3,5
5206,1,1,1,495,1,636,143,1,3,5
5206,1,2,4,538,0,363,144,2,3,5
5206,1,2,3,439,0,26,145,2,4,6
5206,1,1,1,331,1,378,146,1,4,6
5206,1,2,3,327,0,447,147,2,4,6
5206,1,1,2,377,1,504,148,1,4,6
5206,1,1,1,407,1,409,149,1,4,6
5206,1,2,3,314,1,515,150,1,4,6
5206,1,2,4,545,1,546,151,1,4,6
5206,1,1,1,582,1,468,152,1,4,6
5206,1,1,2,344,1,425,153,1,4,6
5206,1,1,1,490,1,360,154,1,4,6
5206,1,1,2,463,1,327,155,1,4,6
5206,1,2,4,389,0,403,156,2,4,6
5206,1,1,2,554,1,517,157,1,4,6
5206,1,2,4,559,1,514,158,1,4,6
5206,1,2,4,455,1,388,159,1,4,6
5206,1,2,3,344,1,727,160,1,4,6
5206,1,2,4,599,0,291,161,2,4,6
5206,1,1,2,473,1,456,162,1,4,6
5206,1,2,3,527,0,275,163,2,4,6
5206,1,2,4,435,1,589,164,1,4,6
5206,1,1,1,466,0,305,165,2,4,6
5206,1,2,4,326,1,585,166,1,4,6
5206,1,1,1,575,1,556,167,1,4,6
5206,1,2,3,395,1,508,168,1,4,6
5206,1,1,1,486,1,349,169,1,4,6
5206,1,2,3,404,1,416,170,1,4,6
5206,1,1,1,361,1,436,171,1,4,6
5206,1,1,2,319,1,592,172,1,4,6
5206,1,1,2,307,1,455,173,1,4,6
5206,1,2,3,442,0,308,174,2,4,6
5206,1,2,4,340,1,520,175,1,4,6
5206,1,1,2,591,1,652,176,1,4,6
5206,1,2,3,428,1,581,177,1,2,7
5206,1,2,4,421,0,364,178,2,2,7
5206,1,1,2,319,1,533,179,1,2,7
5206,1,2,4,380,1,468,180,1,2,7
5206,1,2,3,410,1,517,181,1,2,7
5206,1,2,4,385,1,531,182,1,2,7
5206,1,2,4,323,1,545,183,1,2,7
5206,1,1,1,487,1,442,184,1,2,7
5206,1,1,1,532,1,396,185,1,2,7
5206,1,2,3,426,1,482,186,1,2,7
5206,1,1,1,301,1,423,187,1,2,7
5206,1,1,2,326,1,446,188,1,2,7
5206,1,1,2,339,1,536,189,1,2,7
5206,1,1,1,402,1,506,190,1,2,7
5206,1,2,3,326,0,258,191,2,2,7
5206,1,1,2,428,1,438,192,1,2,7
5206,1,1,2,431,1,343,193,1,2,7
5206,1,1,2,340,1,394,194,1,2,7
5206,1,2,3,408,1,636,195,1,2,7
5206,1,1,1,363,1,389,196,1,2,7
5206,1,2,3,466,1,434,197,1,2,7
5206,1,1,2,578,1,527,198,1,2,7
5206,1,1,2,496,1,332,199,1,2,7
5206,1,2,4,544,1,268,200,1,2,7
5206,1,2,4,477,1,371,201,1,2,7
5206,1,2,3,339,0,348,202,2,2,7
5206,1,2,3,540,1,606,203,1,2,7
5206,1,1,1,338,1,427,204,1,2,7
5206,1,2,4,588,1,640,205,1,2,7
5206,1,1,1,354,1,511,206,1,2,7
5206,1,1,1,514,1,477,207,1,2,7
5206,1,2,4,495,0,321,208,2,2,7
5206,1,1,2,404,1,501,209,1,2,8
5206,1,2,3,444,1,392,210,1,2,8
5206,1,1,1,346,1,384,211,1,2,8
5206,1,1,2,440,1,423,212,1,2,8
5206,1,2,4,317,1,356,213,1,2,8
5206,1,1,1,315,1,407,214,1,2,8
5206,1,2,4,402,1,472,215,1,2,8
5206,1,2,3,423,0,317,216,2,2,8
5206,1,1,2,547,1,490,217,1,2,8
5206,1,2,3,574,0,325,218,2,2,8
5206,1,2,4,335,1,472,219,1,2,8
5206,1,1,2,436,1,427,220,1,2,8
5206,1,2,4,593,1,560,221,1,2,8
5206,1,1,1,593,1,430,222,1,2,8
5206,1,1,1,379,1,492,223,1,2,8
5206,1,2,3,489,1,500,224,1,2,8
5206,1,2,4,507,0,282,225,2,2,8
5206,1,2,3,527,0,354,226,2,2,8
5206,1,2,3,563,1,468,227,1,2,8
5206,1,1,2,461,0,288,228,2,2,8
5206,1,1,1,445,1,348,229,1,2,8
5206,1,1,2,533,1,274,230,1,2,8
5206,1,2,4,360,0,435,231,2,2,8
5206,1,2,4,467,1,307,232,1,2,8
5206,1,2,3,508,0,294,233,2,2,8
5206,1,1,2,408,1,545,234,1,2,8
5206,1,1,1,320,1,374,235,1,2,8
5206,1,2,3,424,0,248,236,2,2,8
5206,1,1,1,329,1,257,237,1,2,8
5206,1,1,2,415,1,145,238,1,2,8
5206,1,2,4,550,1,317,239,1,2,8
5206,1,1,1,465,1,565,240,1,2,8
5206,1,1,1,323,1,495,241,1,2,9
5206,1,2,3,509,1,427,242,1,2,9
5206,1,2,4,335,1,543,243,1,2,9
5206,1,2,3,397,1,571,244,1,2,9
5206,1,1,2,478,1,392,245,1,2,9
5206,1,2,4,581,0,386,246,2,2,9
5206,1,1,2,457,1,329,247,1,2,9
5206,1,1,2,508,1,308,248,1,2,9
5206,1,1,1,372,1,489,249,1,2,9
5206,1,2,4,403,1,452,250,1,2,9
5206,1,2,3,302,1,557,251,1,2,9
5206,1,1,1,484,1,438,252,1,2,9
5206,1,1,2,587,1,455,253,1,2,9
5206,1,2,4,313,1,511,254,1,2,9
5206,1,2,3,313,1,566,255,1,2,9
5206,1,1,1,398,1,420,256,1,2,9
5206,1,2,3,455,0,369,257,2,2,9
5206,1,2,4,387,1,544,258,1,2,9
5206,1,2,3,399,1,621,259,1,2,9
5206,1,1,2,422,1,403,260,1,2,9
5206,1,1,2,552,1,545,261,1,2,9
5206,1,1,1,549,1,416,262,1,2,9
5206,1,1,1,404,1,445,263,1,2,9
5206,1,1,2,518,0,470,264,2,2,9
5206,1,2,4,521,1,272,265,1,2,9
5206,1,2,3,425,0,495,266,2,2,9
5206,1,2,4,359,1,676,267,1,2,9
5206,1,1,1,534,1,250,268,1,2,9
5206,1,2,4,428,1,391,269,1,2,9
5206,1,2,3,513,1,253,270,1,2,9
5206,1,1,2,397,1,298,271,1,2,9
5206,1,1,1,341,1,349,272,1,2,9
5206,1,1,1,312,1,438,273,1,2,10
5206,1,1,2,589,1,405,274,1,2,10
5206,1,1,1,580,1,372,275,1,2,10
5206,1,1,1,340,1,519,276,1,2,10
5206,1,2,3,499,1,258,277,1,2,10
5206,1,2,3,457,1,255,278,1,2,10
5206,1,1,1,595,1,307,279,1,2,10
5206,1,2,4,322,0,339,280,2,2,10
5206,1,2,3,302,1,870,281,1,2,10
5206,1,1,2,566,1,445,282,1,2,10
5206,1,1,2,386,1,276,283,1,2,10
5206,1,2,4,583,1,218,284,1,2,10
5206,1,1,2,450,1,419,285,1,2,10
5206,1,2,4,564,1,109,286,1,2,10
5206,1,2,4,361,1,342,287,1,2,10
5206,1,2,3,399,1,604,288,1,2,10
5206,1,1,2,461,1,438,289,1,2,10
5206,1,2,4,502,1,300,290,1,2,10
5206,1,2,3,466,0,321,291,2,2,10
5206,1,1,1,358,1,589,292,1,2,10
5206,1,1,1,397,1,329,293,1,2,10
5206,1,2,4,506,0,289,294,2,2,10
5206,1,1,1,332,1,430,295,1,2,10
5206,1,1,2,314,1,520,296,1,2,10
5206,1,2,3,303,0,389,297,2,2,10
5206,1,2,4,371,1,476,298,1,2,10
5206,1,1,2,425,1,389,299,1,2,10
5206,1,2,3,407,0,332,300,2,2,10
5206,1,2,4,539,1,358,301,1,2,10
5206,1,1,2,309,1,406,302,1,2,10
5206,1,1,1,400,1,481,303,1,2,10
5206,1,2,3,578,0,461,304,2,2,10
5206,1,2,3,305,1,731,305,1,2,11
5206,1,1,1,549,1,364,306,1,2,11
5206,1,1,2,570,0,0,307,3,2,11
5206,1,1,2,375,1,462,308,1,2,11
5206,1,2,3,519,1,470,309,1,2,11
5206,1,1,2,340,1,427,310,1,2,11
5206,1,2,3,521,1,288,311,1,2,11
5206,1,1,1,557,0,311,312,2,2,11
5206,1,2,4,453,1,487,313,1,2,11
5206,1,2,3,426,0,303,314,2,2,11
5206,1,1,1,509,1,478,315,1,2,11
5206,1,2,4,520,1,339,316,1,2,11
5206,1,1,2,349,1,463,317,1,2,11
5206,1,2,4,509,1,428,318,1,2,11
5206,1,2,4,480,1,370,319,1,2,11
5206,1,1,1,328,1,534,320,1,2,11
5206,1,1,2,470,1,305,321,1,2,11
5206,1,2,3,429,1,524,322,1,2,11
5206,1,2,4,444,1,410,323,1,2,11
5206,1,1,1,548,1,441,324,1,2,11
5206,1,2,3,401,0,363,325,2,2,11
5206,1,2,3,339,1,587,326,1,2,11
5206,1,2,3,488,1,771,327,1,2,11
5206,1,2,4,416,1,538,328,1,2,11
5206,1,1,2,378,1,514,329,1,2,11
5206,1,2,4,311,1,470,330,1,2,11
5206,1,1,1,404,1,488,331,1,2,11
5206,1,1,1,434,1,476,332,1,2,11
5206,1,2,4,405,1,475,333,1,2,11
5206,1,1,2,509,1,472,334,1,2,11
5206,1,1,2,457,1,679,335,1,2,11
5206,1,1,1,555,1,535,336,1,2,11
5206,1,1,1,591,1,555,337,1,2,12
5206,1,1,2,363,1,611,338,1,2,12
5206,1,2,4,477,1,458,339,1,2,12
5206,1,2,4,492,1,370,340,1,2,12
5206,1,2,3,513,0,290,341,2,2,12
5206,1,2,4,553,1,550,342,1,2,12
5206,1,1,2,458,1,323,343,1,2,12
5206,1,1,1,549,1,460,344,1,2,12
5206,1,2,3,478,1,528,345,1,2,12
5206,1,2,3,417,1,419,346,1,2,12
5206,1,1,1,546,1,231,347,1,2,12
5206,1,2,3,517,1,508,348,1,2,12
5206,1,1,2,414,0,284,349,2,2,12
5206,1,2,4,432,0,343,350,2,2,12
5206,1,1,2,558,1,198,351,1,2,12
5206,1,1,1,386,1,496,352,1,2,12
5206,1,1,2,349,1,583,353,1,2,12
5206,1,1,2,515,1,385,354,1,2,12
5206,1,1,1,544,1,463,355,1,2,12
5206,1,2,3,452,1,458,356,1,2,12
5206,1,1,1,394,1,381,357,1,2,12
5206,1,2,4,370,1,484,358,1,2,12
5206,1,2,3,472,1,627,359,1,2,12
5206,1,1,1,443,1,452,360,1,2,12
5206,1,2,4,454,1,476,361,1,2,12
5206,1,2,4,595,1,519,362,1,2,12
5206,1,2,4,363,1,588,363,1,2,12
5206,1,2,3,465,1,608,364,1,2,12
5206,1,1,2,309,1,682,365,1,2,12
5206,1,1,1,333,1,478,366,1,2,12
5206,1,2,3,397,0,334,367,2,2,12
5206,1,1,2,569,0,290,368,2,2,12
5207,1,2,4,309,1,950,17,1,1,2
5207,1,1,1,529,0,655,18,2,1,2
5207,1,2,3,463,1,703,19,1,1,2
5207,1,1,2,499,1,627,20,1,1,2
5207,1,1,1,600,1,622,21,1,1,2
5207,1,2,3,556,1,592,22,1,1,2
5207,1,2,3,319,1,613,23,1,1,2
5207,1,1,2,540,1,538,24,1,1,2
5207,1,1,2,410,1,664,25,1,1,2
5207,1,2,4,340,1,631,26,1,1,2
5207,1,2,3,376,1,558,27,1,1,2
5207,1,1,1,550,1,537,28,1,1,2
5207,1,1,2,416,1,645,29,1,1,2
5207,1,2,4,531,1,682,30,1,1,2
5207,1,1,1,486,1,539,31,1,1,2
5207,1,2,4,430,1,887,32,1,1,2
5207,1,1,1,476,1,533,33,1,1,2
5207,1,2,3,400,1,571,34,1,1,2
5207,1,2,3,403,1,514,35,1,1,2
5207,1,2,4,393,1,573,36,1,1,2
5207,1,2,4,488,1,640,37,1,1,2
5207,1,2,4,389,1,583,38,1,1,2
5207,1,2,4,510,1,805,39,1,1,2
5207,1,1,1,545,1,697,40,1,1,2
5207,1,2,3,321,1,637,41,1,1,2
5207,1,1,1,407,1,493,42,1,1,2
5207,1,1,2,544,1,733,43,1,1,2
5207,1,1,1,325,1,574,44,1,1,2
5207,1,1,2,492,1,543,45,1,1,2
5207,1,2,3,483,1,522,46,1,1,2
5207,1,1,2,589,1,560,47,1,1,2
5207,1,1,2,372,1,673,48,1,1,2
5207,1,2,4,467,1,637,49,1,3,3
5207,1,2,3,471,1,556,50,1,3,3
5207,1,2,3,489,1,590,51,1,3,3
5207,1,1,1,381,1,561,52,1,3,3
5207,1,1,2,394,1,538,53,1,3,3
5207,1,1,1,530,1,497,54,1,3,3
5207,1,1,2,372,1,578,55,1,3,3
5207,1,2,4,570,1,573,56,1,3,3
5207,1,2,3,505,1,485,57,1,3,3
5207,1,1,1,520,1,535,58,1,3,3
5207,1,1,1,416,1,451,59,1,3,3
5207,1,2,4,311,1,595,60,1,3,3
5207,1,2,3,376,1,526,61,1,3,3
5207,1,1,2,334,1,547,62,1,3,3
5207,1,1,2,588,1,627,63,1,3,3
5207,1,2,4,461,1,550,64,1,3,3
5207,1,2,4,393,1,645,65,1,3,3
5207,1,1,2,508,1,620,66,1,3,3
5207,1,2,3,463,1,543,67,1,3,3
5207,1,1,2,561,1,538,68,1,3,3
5207,1,1,2,335,1,581,69,1,3,3
5207,1,1,2,555,1,682,70,1,3,3
5207,1,2,3,370,1,648,71,1,3,3
5207,1,2,3,421,0,0,72,3,3,3
5207,1,1,1,380,1,742,73,1,3,3
5207,1,2,4,570,1,567,74,1,3,3
5207,1,1,1,362,1,562,75,1,3,3
5207,1,2,4,409,1,791,76,1,3,3
5207,1,2,4,566,1,1384,77,1,3,3
5207,1,1,1,396,1,571,78,1,3,3
5207,1,2,3,361,1,565,79,1,3,3
5207,1,1,1,341,1,592,80,1,3,3
5207,1,1,1,395,1,665,81,1,3,4
5207,1,1,2,525,0,398,82,2,3,4
5207,1,2,3,302,1,602,83,1,3,4
5207,1,2,3,336,1,479,84,1,3,4
5207,1,1,2,510,1,503,85,1,3,4
5207,1,2,3,317,1,517,86,1,3,4
5207,1,1,1,367,1,567,87,1,3,4
5207,1,1,2,368,1,490,88,1,3,4
5207,1,2,4,445,1,583,89,1,3,4
5207,1,2,4,432,1,602,90,1,3,4
5207,1,1,1,464,1,711,91,1,3,4
5207,1,2,3,527,1,492,92,1,3,4
5207,1,2,4,402,1,548,93,1,3,4
5207,1,2,4,484,1,575,94,1,3,4
5207,1,1,2,467,1,570,95,1,3,4
5207,1,1,1,338,1,522,96,1,3,4
5207,1,1,2,309,1,912,97,1,3,4
5207,1,1,1,422,1,525,98,1,3,4
5207,1,1,1,469,1,659,99,1,3,4
5207,1,2,3,303,1,571,100,1,3,4
5207,1,2,4,544,1,530,101,1,3,4
5207,1,2,4,392,1,659,102,1,3,4
5207,1,1,2,312,1,600,103,1,3,4
5207,1,1,1,558,1,548,104,1,3,4
5207,1,2,4,354,1,704,105,1,3,4
5207,1,2,3,522,1,565,106,1,3,4
5207,1,2,4,441,1,670,107,1,3,4
5207,1,2,3,541,0,0,108,3,3,4
5207,1,2,3,372,1,989,109,1,3,4
5207,1,1,1,371,1,1052,110,1,3,4
5207,1,1,2,502,1,1240,111,1,3,4
5207,1,1,2,343,1,561,112,1,3,4
5207,1,2,4,339,1,592,113,1,3,5
5207,1,1,1,344,1,537,114,1,3,5
5207,1,1,2,396,1,541,115,1,3,5
5207,1,2,4,571,1,1161,116,1,3,5
5207,1,1,2,434,1,832,117,1,3,5
5207,1,2,4,466,1,566,118,1,3,5
5207,1,1,1,374,1,572,119,1,3,5
5207,1,2,3,502,1,525,120,1,3,5
5207,1,2,3,479,1,492,121,1,3,5
5207,1,2,4,334,1,616,122,1,3,5
5207,1,1,1,584,1,1004,123,1,3,5
5207,1,1,2,356,1,524,124,1,3,5
5207,1,2,3,516,1,497,125,1,3,5
5207,1,1,2,425,0,587,126,2,3,5
5207,1,2,3,345,1,650,127,1,3,5
5207,1,1,1,480,1,1400,128,1,3,5
5207,1,2,4,580,1,672,129,1,3,5
5207,1,1,1,465,1,801,130,1,3,5
5207,1,1,2,563,1,652,131,1,3,5
5207,1,2,3,409,1,563,132,1,3,5
5207,1,2,3,322,1,656,133,1,3,5
5207,1,2,4,346,1,692,134,1,3,5
5207,1,1,1,420,1,571,135,1,3,5
5207,1,2,4,508,1,503,136,1,3,5
5207,1,1,2,357,0,1078,137,2,3,5
5207,1,1,1,335,1,1408,138,1,3,5
5207,1,2,3,335,1,651,139,1,3,5
5207,1,2,3,492,1,502,140,1,3,5
5207,1,1,2,415,1,691,141,1,3,5
5207,1,1,2,543,0,898,142,2,3,5
5207,1,2,4,550,0,0,143,3,3,5
5207,1,1,1,585,1,585,144,1,3,5
5207,1,1,1,488,1,572,145,1,2,6
5207,1,2,3,483,1,734,146,1,2,6
5207,1,2,3,549,1,635,147,1,2,6
5207,1,2,4,474,1,553,148,1,2,6
5207,1,2,3,441,1,847,149,1,2,6
5207,1,1,2,477,1,514,150,1,2,6
5207,1,2,4,475,1,567,151,1,2,6
5207,1,2,3,462,1,497,152,1,2,6
5207,1,1,2,563,1,572,153,1,2,6
5207,1,1,1,457,1,555,154,1,2,6
5207,1,1,1,486,1,1133,155,1,2,6
5207,1,1,2,447,0,708,156,2,2,6
5207,1,2,4,460,0,714,157,2,2,6
5207,1,1,2,353,1,642,158,1,2,6
5207,1,1,1,383,1,645,159,1,2,6
5207,1,2,4,475,1,554,160,1,2,6
5207,1,2,3,425,1,549,161,1,2,6
5207,1,2,3,344,1,1275,162,1,2,6
5207,1,1,1,363,1,930,163,1,2,6
5207,1,2,4,329,1,1022,164,1,2,6
5207,1,1,1,552,1,1224,165,1,2,6
5207,1,1,2,386,1,569,166,1,2,6
5207,1,1,2,362,1,989,167,1,2,6
5207,1,1,1,560,1,610,168,1,2,6
5207,1,2,4,407,1,550,169,1,2,6
5207,1,1,2,310,0,572,170,2,2,6
5207,1,1,2,560,0,0,171,3,2,6
5207,1,1,1,491,1,713,172,1,2,6
5207,1,2,3,595,1,695,173,1,2,6
5207,1,2,3,344,1,618,174,1,2,6
5207,1,2,4,308,1,1217,175,1,2,6
5207,1,2,4,483,1,693,176,1,2,6
5207,1,1,2,370,0,1015,177,2,2,7
5207,1,1,1,380,1,557,178,1,2,7
5207,1,1,2,301,1,468,179,1,2,7
5207,1,2,4,512,1,551,180,1,2,7
5207,1,2,4,331,1,536,181,1,2,7
5207,1,2,4,442,1,716,182,1,2,7
5207,1,1,2,408,1,720,183,1,2,7
5207,1,1,1,495,1,496,184,1,2,7
5207,1,1,1,433,1,500,185,1,2,7
5207,1,2,3,496,1,625,186,1,2,7
5207,1,1,2,381,1,532,187,1,2,7
5207,1,2,3,316,1,473,188,1,2,7
5207,1,2,3,449,1,502,189,1,2,7
5207,1,2,4,591,1,457,190,1,2,7
5207,1,1,1,397,1,485,191,1,2,7
5207,1,2,3,509,1,472,192,1,2,7
5207,1,2,3,317,1,541,193,1,2,7
5207,1,1,2,537,1,444,194,1,2,7
5207,1,1,1,560,1,459,195,1,2,7
5207,1,1,2,536,1,457,196,1,2,7
5207,1,2,3,411,1,508,197,1,2,7
5207,1,2,4,320,1,572,198,1,2,7
5207,1,1,2,317,1,591,199,1,2,7
5207,1,2,3,542,1,572,200,1,2,7
5207,1,2,3,495,1,510,201,1,2,7
5207,1,1,2,361,1,582,202,1,2,7
5207,1,2,4,316,1,541,203,1,2,7
5207,1,2,4,334,1,556,204,1,2,7
5207,1,1,1,526,1,566,205,1,2,7
5207,1,1,1,351,1,657,206,1,2,7
5207,1,2,4,562,1,555,207,1,2,7
5207,1,1,1,447,1,580,208,1,2,7
5207,1,1,2,511,1,967,209,1,3,8
5207,1,1,1,475,1,447,210,1,3,8
5207,1,2,4,598,1,479,211,1,3,8
5207,1,1,2,476,0,358,212,2,3,8
5207,1,1,2,340,0,497,213,2,3,8
5207,1,2,3,593,1,638,214,1,3,8
5207,1,1,2,310,1,477,215,1,3,8
5207,1,2,4,470,1,573,216,1,3,8
5207,1,2,3,492,1,442,217,1,3,8
5207,1,2,3,486,1,417,218,1,3,8
5207,1,2,4,411,1,590,219,1,3,8
5207,1,2,4,387,1,516,220,1,3,8
5207,1,1,1,549,1,422,221,1,3,8
5207,1,1,1,584,1,576,222,1,3,8
5207,1,2,3,341,1,547,223,1,3,8
5207,1,1,1,321,1,530,224,1,3,8
5207,1,2,4,579,1,426,225,1,3,8
5207,1,1,2,376,1,525,226,1,3,8
5207,1,2,4,441,1,733,227,1,3,8
5207,1,2,3,310,1,575,228,1,3,8
5207,1,1,1,501,1,548,229,1,3,8
5207,1,1,2,471,1,607,230,1,3,8
5207,1,2,3,527,1,479,231,1,3,8
5207,1,2,4,318,1,489,232,1,3,8
5207,1,1,1,482,1,500,233,1,3,8
5207,1,1,1,537,1,571,234,1,3,8
5207,1,1,2,471,0,844,235,2,3,8
5207,1,1,1,455,1,1161,236,1,3,8
5207,1,1,2,596,0,670,237,2,3,8
5207,1,2,3,403,0,947,238,2,3,8
5207,1,2,4,510,0,551,239,2,3,8
5207,1,2,3,478,1,653,240,1,3,8
5207,1,2,3,519,1,985,241,1,2,9
5207,1,1,1,558,1,500,242,1,2,9
5207,1,2,4,466,1,479,243,1,2,9
5207,1,1,2,551,1,461,244,1,2,9
5207,1,2,4,583,1,583,245,1,2,9
5207,1,2,3,495,1,514,246,1,2,9
5207,1,1,1,497,1,480,247,1,2,9
5207,1,1,1,443,1,500,248,1,2,9
5207,1,1,2,467,1,470,249,1,2,9
5207,1,2,4,328,1,559,250,1,2,9
5207,1,2,3,372,1,584,251,1,2,9
5207,1,1,2,592,1,539,252,1,2,9
5207,1,1,2,316,1,522,253,1,2,9
5207,1,1,1,448,1,504,254,1,2,9
5207,1,2,4,302,1,477,255,1,2,9
5207,1,2,3,356,1,491,256,1,2,9
5207,1,1,1,432,1,484,257,1,2,9
5207,1,2,4,559,0,370,258,2,2,9
5207,1,1,2,466,1,473,259,1,2,9
5207,1,1,1,399,1,506,260,1,2,9
5207,1,1,2,370,1,867,261,1,2,9
5207,1,2,3,449,1,522,262,1,2,9
5207,1,1,1,383,1,756,263,1,2,9
5207,1,1,1,528,1,488,264,1,2,9
5207,1,2,4,436,1,591,265,1,2,9
5207,1,2,3,429,1,484,266,1,2,9
5207,1,2,3,454,1,558,267,1,2,9
5207,1,2,4,458,1,636,268,1,2,9
5207,1,1,2,540,0,1240,269,2,2,9
5207,1,2,3,347,1,630,270,1,2,9
5207,1,1,2,477,1,347,271,1,2,9
5207,1,2,4,552,1,495,272,1,2,9
5207,1,2,3,526,1,436,273,1,3,10
5207,1,1,1,385,1,482,274,1,3,10
5207,1,2,4,516,1,415,275,1,3,10
5207,1,2,4,576,1,427,276,1,3,10
5207,1,2,3,356,1,602,277,1,3,10
5207,1,1,1,537,1,447,278,1,3,10
5207,1,1,2,402,1,496,279,1,3,10
5207,1,1,2,549,1,438,280,1,3,10
5207,1,1,1,386,1,503,281,1,3,10
5207,1,2,3,527,1,468,282,1,3,10
5207,1,1,2,348,1,658,283,1,3,10
5207,1,2,4,480,0,0,284,3,3,10
5207,1,2,3,487,1,714,285,1,3,10
5207,1,2,4,319,1,538,286,1,3,10
5207,1,1,2,598,0,538,287,2,3,10
5207,1,1,1,489,1,531,288,1,3,10
5207,1,2,4,592,1,459,289,1,3,10
5207,1,2,4,463,0,559,290,2,3,10
5207,1,1,2,479,0,0,291,3,3,10
5207,1,1,2,361,1,609,292,1,3,10
5207,1,1,1,546,1,790,293,1,3,10
5207,1,2,3,457,1,1228,294,1,3,10
5207,1,1,2,507,1,636,295,1,3,10
5207,1,1,2,301,0,455,296,2,3,10
5207,1,1,1,460,1,526,297,1,3,10
5207,1,1,1,583,1,781,298,1,3,10
5207,1,2,3,312,1,494,299,1,3,10
5207,1,2,4,310,1,634,300,1,3,10
5207,1,2,3,489,1,830,301,1,3,10
5207,1,1,1,571,1,554,302,1,3,10
5207,1,2,3,468,1,537,303,1,3,10
5207,1,2,4,597,1,519,304,1,3,10
5207,1,2,3,474,1,720,305,1,2,11
5207,1,1,1,320,1,488,306,1,2,11
5207,1,2,3,495,1,432,307,1,2,11
5207,1,1,1,356,1,517,308,1,2,11
5207,1,2,4,502,1,578,309,1,2,11
5207,1,1,1,320,1,508,310,1,2,11
5207,1,1,2,356,1,617,311,1,2,11
5207,1,2,4,377,1,526,312,1,2,11
5207,1,2,4,467,1,571,313,1,2,11
5207,1,2,3,461,1,483,314,1,2,11
5207,1,1,2,551,1,629,315,1,2,11
5207,1,1,2,482,1,504,316,1,2,11
5207,1,2,4,599,1,637,317,1,2,11
5207,1,1,1,456,1,572,318,1,2,11
5207,1,2,3,386,1,534,319,1,2,11
5207,1,1,2,344,1,578,320,1,2,11
5207,1,1,1,450,1,531,321,1,2,11
5207,1,2,4,478,1,487,322,1,2,11
5207,1,1,1,390,1,522,323,1,2,11
5207,1,1,2,540,1,986,324,1,2,11
5207,1,2,3,342,1,507,325,1,2,11
5207,1,2,4,339,1,606,326,1,2,11
5207,1,1,2,548,0,1499,327,2,2,11
5207,1,2,3,482,1,513,328,1,2,11
5207,1,1,2,537,1,489,329,1,2,11
5207,1,2,4,341,0,1267,330,2,2,11
5207,1,1,1,404,1,504,331,1,2,11
5207,1,2,3,517,1,822,332,1,2,11
5207,1,2,4,559,1,858,333,1,2,11
5207,1,1,1,370,1,522,334,1,2,11
5207,1,1,2,419,1,519,335,1,2,11
5207,1,2,3,588,1,674,336,1,2,11
5207,1,1,1,304,1,645,337,1,3,12
5207,1,2,4,514,1,530,338,1,3,12
5207,1,2,3,437,1,828,339,1,3,12
5207,1,2,4,413,1,519,340,1,3,12
5207,1,1,2,554,1,530,341,1,3,12
5207,1,2,4,478,1,497,342,1,3,12
5207,1,2,3,323,1,490,343,1,3,12
5207,1,1,2,317,1,523,344,1,3,12
5207,1,2,3,458,1,536,345,1,3,12
5207,1,1,1,316,1,598,346,1,3,12
5207,1,2,4,571,1,495,347,1,3,12
5207,1,1,1,415,1,444,348,1,3,12
5207,1,1,2,595,1,485,349,1,3,12
5207,1,2,3,516,1,501,350,1,3,12
5207,1,1,1,455,1,590,351,1,3,12
5207,1,1,2,443,1,493,352,1,3,12
5207,1,1,2,535,1,624,353,1,3,12
5207,1,1,2,464,1,1330,354,1,3,12
5207,1,2,3,416,1,423,355,1,3,12
5207,1,2,4,501,1,407,356,1,3,12
5207,1,1,1,431,1,451,357,1,3,12
5207,1,1,1,494,1,489,358,1,3,12
5207,1,2,3,341,1,890,359,1,3,12
5207,1,1,2,432,1,549,360,1,3,12
5207,1,2,3,581,1,495,361,1,3,12
5207,1,1,2,568,1,385,362,1,3,12
5207,1,2,3,414,1,504,363,1,3,12
5207,1,2,4,532,1,399,364,1,3,12
5207,1,1,1,466,1,471,365,1,3,12
5207,1,2,4,544,1,518,366,1,3,12
5207,1,2,4,421,1,634,367,1,3,12
5207,1,1,1,434,1,596,368,1,3,12
5208,1,1,1,555,1,662,17,1,1,2
5208,1,1,2,398,1,488,18,1,1,2
5208,1,2,4,570,1,717,19,1,1,2
5208,1,2,4,349,1,626,20,1,1,2
5208,1,2,3,430,1,630,21,1,1,2
5208,1,1,1,329,1,538,22,1,1,2
5208,1,1,1,472,1,567,23,1,1,2
5208,1,1,2,344,1,527,24,1,1,2
5208,1,2,4,310,1,584,25,1,1,2
5208,1,1,1,347,1,507,26,1,1,2
5208,1,2,3,400,0,390,27,2,1,2
5208,1,2,3,438,1,545,28,1,1,2
5208,1,1,2,343,1,539,29,1,1,2
5208,1,1,2,317,1,462,30,1,1,2
5208,1,2,4,402,1,671,31,1,1,2
5208,1,2,3,544,1,577,32,1,1,2
5208,1,1,2,308,1,544,33,1,1,2
5208,1,2,3,424,1,543,34,1,1,2
5208,1,1,1,418,1,602,35,1,1,2
5208,1,1,2,506,1,482,36,1,1,2
5208,1,1,2,499,1,778,37,1,1,2
5208,1,2,4,305,1,750,38,1,1,2
5208,1,1,1,536,1,529,39,1,1,2
5208,1,1,1,598,1,478,40,1,1,2
5208,1,1,1,482,1,1020,41,1,1,2
5208,1,2,4,577,1,629,42,1,1,2
5208,1,2,4,332,1,975,43,1,1,2
5208,1,2,4,569,1,1427,44,1,1,2
5208,1,2,3,480,1,569,45,1,1,2
5208,1,2,3,420,1,881,46,1,1,2
5208,1,1,2,399,1,834,47,1,1,2
5208,1,2,3,572,0,0,48,3,1,2
5208,1,1,2,488,1,561,49,1,3,3
5208,1,2,3,338,1,500,50,1,3,3
5208,1,2,3,336,0,356,51,2,3,3
5208,1,1,1,527,1,401,52,1,3,3
5208,1,1,1,347,1,580,53,1,3,3
5208,1,1,1,559,1,599,54,1,3,3
5208,1,2,3,505,1,436,55,1,3,3
5208,1,2,4,537,1,616,56,1,3,3
5208,1,2,3,550,1,330,57,1,3,3
5208,1,2,4,353,0,556,58,2,3,3
5208,1,1,2,366,1,549,59,1,3,3
5208,1,1,2,347,1,567,60,1,3,3
5208,1,1,1,556,1,468,61,1,3,3
5208,1,1,2,484,1,517,62,1,3,3
5208,1,2,4,355,1,681,63,1,3,3
5208,1,2,4,576,1,604,64,1,3,3
5208,1,2,4,422,1,547,65,1,3,3
5208,1,2,4,444,1,539,66,1,3,3
5208,1,1,2,341,1,969,67,1,3,3
5208,1,2,3,525,1,521,68,1,3,3
5208,1,1,1,369,0,382,69,2,3,3
5208,1,2,4,466,0,574,70,2,3,3
5208,1,2,4,304,1,1183,71,1,3,3
5208,1,2,3,368,1,745,72,1,3,3
5208,1,1,1,345,0,1052,73,2,3,3
5208,1,1,2,490,0,0,74,3,3,3
5208,1,2,3,536,0,0,75,3,3,3
5208,1,1,2,365,1,808,76,1,3,3
5208,1,1,2,427,0,0,77,3,3,3
5208,1,1,1,489,1,712,78,1,3,3
5208,1,2,3,379,1,1048,79,1,3,3
5208,1,1,1,553,1,1252,80,1,3,3
5208,1,2,3,517,1,642,81,1,2,4
5208,1,2,4,529,1,639,82,1,2,4
5208,1,1,2,571,1,515,83,1,2,4
5208,1,2,4,544,1,662,84,1,2,4
5208,1,2,3,346,1,708,85,1,2,4
5208,1,1,1,498,1,770,86,1,2,4
5208,1,1,1,522,1,465,87,1,2,4
5208,1,1,1,527,1,635,88,1,2,4
5208,1,2,4,598,0,416,89,2,2,4
5208,1,1,1,303,1,879,90,1,2,4
5208,1,1,2,333,1,587,91,1,2,4
5208,1,1,2,304,1,1358,92,1,2,4
5208,1,2,4,377,1,1398,93,1,2,4
5208,1,2,3,359,1,699,94,1,2,4
5208,1,2,3,366,0,0,95,3,2,4
5208,1,1,2,375,0,95,96,2,2,4
5208,1,2,4,347,1,553,97,1,2,4
5208,1,1,2,375,1,499,98,1,2,4
5208,1,2,4,538,1,711,99,1,2,4
5208,1,1,1,391,1,737,100,1,2,4
5208,1,2,3,531,1,613,101,1,2,4
5208,1,1,1,578,1,454,102,1,2,4
5208,1,2,4,339,1,701,103,1,2,4
5208,1,2,3,591,1,553,104,1,2,4
5208,1,2,3,490,1,706,105,1,2,4
5208,1,2,3,484,1,1086,106,1,2,4
5208,1,1,2,542,1,544,107,1,2,4
5208,1,1,2,499,1,495,108,1,2,4
5208,1,1,1,379,1,556,109,1,2,4
5208,1,2,4,518,0,430,110,2,2,4
5208,1,1,1,437,1,659,111,1,2,4
5208,1,1,2,324,1,593,112,1,2,4
5208,1,2,3,390,1,559,113,1,2,5
5208,1,2,4,535,1,573,114,1,2,5
5208,1,2,3,318,1,748,115,1,2,5
5208,1,2,4,439,1,650,116,1,2,5
5208,1,1,1,320,1,422,117,1,2,5
5208,1,1,1,553,1,514,118,1,2,5
5208,1,2,3,524,0,524,119,2,2,5
5208,1,2,4,328,1,1030,120,1,2,5
5208,1,1,1,562,1,606,121,1,2,5
5208,1,1,2,393,1,582,122,1,2,5
5208,1,1,2,432,1,629,123,1,2,5
5208,1,1,1,319,1,555,124,1,2,5
5208,1,2,3,399,1,701,125,1,2,5
5208,1,2,4,345,1,746,126,1,2,5
5208,1,1,2,538,0,0,127,3,2,5
5208,1,1,2,592,1,929,128,1,2,5
5208,1,2,4,504,0,677,129,2,2,5
5208,1,2,3,376,0,1148,130,2,2,5
5208,1,2,4,557,0,1260,131,2,2,5
5208,1,1,2,352,1,1199,132,1,2,5
5208,1,2,4,426,1,1347,133,1,2,5
5208,1,1,1,391,1,773,134,1,2,5
5208,1,2,3,383,1,1373,135,1,2,5
5208,1,2,3,352,0,0,136,3,2,5
5208,1,1,1,324,1,1470,137,1,2,5
5208,1,2,3,489,1,816,138,1,2,5
5208,1,1,2,483,1,718,139,1,2,5
5208,1,2,4,366,1,1493,140,1,2,5
5208,1,1,2,397,1,512,141,1,2,5
5208,1,1,1,460,1,532,142,1,2,5
5208,1,1,2,537,1,747,143,1,2,5
5208,1,1,1,426,1,576,144,1,2,5
5208,1,2,3,441,1,556,145,1,2,6
5208,1,1,1,323,1,413,146,1,2,6
5208,1,2,3,546,1,619,147,1,2,6
5208,1,2,4,306,1,720,148,1,2,6
5208,1,1,1,513,1,739,149,1,2,6
5208,1,1,2,313,1,645,150,1,2,6
5208,1,1,2,309,1,544,151,1,2,6
5208,1,1,1,331,1,553,152,1,2,6
5208,1,1,1,373,1,589,153,1,2,6
5208,1,1,2,397,1,611,154,1,2,6
5208,1,2,3,442,0,558,155,2,2,6
5208,1,1,2,334,1,911,156,1,2,6
5208,1,2,3,549,1,733,157,1,2,6
5208,1,2,4,467,0,1304,158,2,2,6
5208,1,2,4,556,0,0,159,3,2,6
5208,1,2,4,496,1,816,160,1,2,6
5208,1,2,3,443,0,0,161,3,2,6
5208,1,2,4,465,0,0,162,3,2,6
5208,1,1,1,565,1,543,163,1,2,6
5208,1,1,1,517,1,491,164,1,2,6
5208,1,1,2,442,1,653,165,1,2,6
5208,1,2,3,578,1,860,166,1,2,6
5208,1,2,4,595,1,919,167,1,2,6
5208,1,1,1,458,1,568,168,1,2,6
5208,1,1,1,412,1,640,169,1,2,6
5208,1,1,2,437,1,711,170,1,2,6
5208,1,2,3,442,1,1050,171,1,2,6
5208,1,2,4,594,0,0,172,3,2,6
5208,1,1,2,366,1,651,173,1,2,6
5208,1,2,3,398,1,1023,174,1,2,6
5208,1,1,2,343,1,1204,175,1,2,6
5208,1,2,4,323,0,0,176,3,2,6
5208,1,1,2,545,1,640,177,1,2,7
5208,1,2,3,400,1,467,178,1,2,7
5208,1,1,1,442,1,498,179,1,2,7
5208,1,2,4,542,1,628,180,1,2,7
5208,1,2,3,417,1,631,181,1,2,7
5208,1,1,1,373,1,570,182,1,2,7
5208,1,1,2,354,1,524,183,1,2,7
5208,1,2,4,415,1,571,184,1,2,7
5208,1,1,1,459,1,454,185,1,2,7
5208,1,2,3,368,1,499,186,1,2,7
5208,1,2,4,358,1,590,187,1,2,7
5208,1,1,2,586,1,411,188,1,2,7
5208,1,2,3,574,1,484,189,1,2,7
5208,1,1,1,357,1,622,190,1,2,7
5208,1,1,2,563,1,463,191,1,2,7
5208,1,2,4,436,1,619,192,1,2,7
5208,1,2,4,586,1,533,193,1,2,7
5208,1,1,2,429,1,731,194,1,2,7
5208,1,2,3,498,1,580,195,1,2,7
5208,1,1,2,328,1,509,196,1,2,7
5208,1,1,2,545,1,722,197,1,2,7
5208,1,1,1,557,1,512,198,1,2,7
5208,1,1,1,569,1,722,199,1,2,7
5208,1,1,1,414,1,613,200,1,2,7
5208,1,2,3,342,0,580,201,2,2,7
5208,1,2,4,587,0,992,202,2,2,7
5208,1,2,4,394,0,0,203,3,2,7
5208,1,2,3,595,1,1366,204,1,2,7
5208,1,1,1,447,1,736,205,1,2,7
5208,1,2,3,344,1,549,206,1,2,7
5208,1,1,2,435,1,631,207,1,2,7
5208,1,2,4,418,1,587,208,1,2,7
5208,1,2,3,444,1,551,209,1,3,8
5208,1,2,4,363,1,571,210,1,3,8
5208,1,2,4,477,0,428,211,2,3,8
5208,1,1,2,504,1,759,212,1,3,8
5208,1,1,1,478,1,539,213,1,3,8
5208,1,1,1,441,1,514,214,1,3,8
5208,1,1,2,441,1,519,215,1,3,8
5208,1,1,2,595,1,497,216,1,3,8
5208,1,2,4,522,1,576,217,1,3,8
5208,1,2,3,537,1,552,218,1,3,8
5208,1,2,3,566,1,570,219,1,3,8
5208,1,1,2,581,1,397,220,1,3,8
5208,1,1,1,570,1,476,221,1,3,8
5208,1,2,4,372,1,642,222,1,3,8
5208,1,1,1,518,1,382,223,1,3,8
5208,1,2,3,406,0,0,224,3,3,8
5208,1,2,3,363,0,552,225,2,3,8
5208,1,2,4,307,0,672,226,2,3,8
5208,1,2,4,473,1,1270,227,1,3,8
5208,1,1,2,303,1,704,228,1,3,8
5208,1,2,4,390,1,650,229,1,3,8
5208,1,1,1,465,1,569,230,1,3,8
5208,1,1,1,445,1,548,231,1,3,8
5208,1,2,3,429,1,549,232,1,3,8
5208,1,2,3,585,1,548,233,1,3,8
5208,1,1,1,413,1,873,234,1,3,8
5208,1,2,4,448,1,1054,235,1,3,8
5208,1,1,2,536,1,684,236,1,3,8
5208,1,1,2,428,1,315,237,1,3,8
5208,1,2,3,410,1,700,238,1,3,8
5208,1,1,2,579,1,418,239,1,3,8
5208,1,1,1,453,0,452,240,2,3,8
5208,1,2,3,325,1,595,241,1,2,9
5208,1,1,1,508,1,411,242,1,2,9
5208,1,2,4,388,1,669,243,1,2,9
5208,1,2,4,462,1,511,244,1,2,9
5208,1,2,4,306,1,561,245,1,2,9
5208,1,1,1,531,1,484,246,1,2,9
5208,1,1,1,586,1,476,247,1,2,9
5208,1,1,1,531,1,463,248,1,2,9
5208,1,2,3,386,1,601,249,1,2,9
5208,1,2,4,486,1,561,250,1,2,9
5208,1,1,2,549,1,437,251,1,2,9
5208,1,1,2,579,1,476,252,1,2,9
5208,1,2,3,567,0,520,253,2,2,9
5208,1,1,2,537,1,1142,254,1,2,9
5208,1,2,3,430,1,687,255,1,2,9
5208,1,1,2,371,1,439,256,1,2,9
5208,1,1,1,456,1,388,257,1,2,9
5208,1,2,4,378,1,449,258,1,2,9
5208,1,2,4,308,0,473,259,2,2,9
5208,1,1,2,379,1,580,260,1,2,9
5208,1,2,3,466,0,427,261,2,2,9
5208,1,2,4,476,1,1008,262,1,2,9
5208,1,1,2,436,1,719,263,1,2,9
5208,1,1,1,438,1,579,264,1,2,9
5208,1,1,2,439,1,409,265,1,2,9
5208,1,2,3,318,1,742,266,1,2,9
5208,1,2,3,358,0,450,267,2,2,9
5208,1,2,4,340,0,0,268,3,2,9
5208,1,1,1,408,0,19,269,2,2,9
5208,1,2,3,504,1,616,270,1,2,9
5208,1,1,2,351,1,517,271,1,2,9
5208,1,1,1,485,1,443,272,1,2,9
5208,1,1,1,430,1,360,273,1,2,10
5208,1,1,1,462,1,322,274,1,2,10
5208,1,1,2,517,0,281,275,2,2,10
5208,1,1,1,461,1,607,276,1,2,10
5208,1,2,4,558,1,1030,277,1,2,10
5208,1,2,3,499,1,566,278,1,2,10
5208,1,1,2,334,1,604,279,1,2,10
5208,1,2,3,335,1,742,280,1,2,10
5208,1,2,4,403,1,804,281,1,2,10
5208,1,2,3,585,1,655,282,1,2,10
5208,1,2,4,301,1,646,283,1,2,10
5208,1,1,2,410,1,759,284,1,2,10
5208,1,2,4,401,1,460,285,1,2,10
5208,1,1,2,351,1,720,286,1,2,10
5208,1,1,1,338,1,604,287,1,2,10
5208,1,2,3,495,0,430,288,2,2,10
5208,1,1,2,568,1,773,289,1,2,10
5208,1,1,2,591,1,529,290,1,2,10
5208,1,2,3,435,1,657,291,1,2,10
5208,1,2,3,412,1,991,292,1,2,10
5208,1,1,1,370,1,858,293,1,2,10
5208,1,1,2,305,1,616,294,1,2,10
5208,1,2,4,540,0,640,295,2,2,10
5208,1,2,4,446,0,0,296,3,2,10
5208,1,2,4,596,1,804,297,1,2,10
5208,1,1,1,475,1,633,298,1,2,10
5208,1,1,1,340,1,1019,299,1,2,10
5208,1,2,4,506,1,973,300,1,2,10
5208,1,1,2,442,1,530,301,1,2,10
5208,1,1,1,514,1,553,302,1,2,10
5208,1,2,3,399,0,0,303,3,2,10
5208,1,2,3,570,0,0,304,3,2,10
5208,1,2,3,482,1,642,305,1,2,11
5208,1,1,2,403,1,469,306,1,2,11
5208,1,1,2,427,1,468,307,1,2,11
5208,1,2,3,391,1,579,308,1,2,11
5208,1,1,1,392,1,548,309,1,2,11
5208,1,1,2,361,1,438,310,1,2,11
5208,1,2,4,300,1,823,311,1,2,11
5208,1,2,3,452,1,486,312,1,2,11
5208,1,1,1,335,1,530,313,1,2,11
5208,1,1,1,591,1,596,314,1,2,11
5208,1,1,1,337,1,611,315,1,2,11
5208,1,2,3,559,0,607,316,2,2,11
5208,1,2,4,524,0,926,317,2,2,11
5208,1,1,2,425,1,728,318,1,2,11
5208,1,2,4,437,1,665,319,1,2,11
5208,1,2,4,519,1,476,320,1,2,11
5208,1,1,1,575,1,621,321,1,2,11
5208,1,2,3,385,1,610,322,1,2,11
5208,1,1,2,354,1,599,323,1,2,11
5208,1,1,2,535,1,594,324,1,2,11
5208,1,1,2,380,0,0,325,3,2,11
5208,1,2,4,410,0,608,326,2,2,11
5208,1,2,3,474,1,727,327,1,2,11
5208,1,1,1,313,1,720,328,1,2,11
5208,1,1,2,332,1,629,329,1,2,11
5208,1,2,4,416,1,793,330,1,2,11
5208,1,1,1,480,1,511,331,1,2,11
5208,1,2,4,561,1,665,332,1,2,11
5208,1,2,3,451,1,655,333,1,2,11
5208,1,1,1,366,1,597,334,1,2,11
5208,1,2,3,453,1,633,335,1,2,11
5208,1,2,4,596,1,648,336,1,2,11
5208,1,2,4,505,1,593,337,1,2,12
5208,1,2,4,431,1,512,338,1,2,12
5208,1,2,3,355,1,583,339,1,2,12
5208,1,2,3,593,1,544,340,1,2,12
5208,1,1,2,600,1,478,341,1,2,12
5208,1,1,2,420,1,386,342,1,2,12
5208,1,2,4,524,1,436,343,1,2,12
5208,1,1,2,383,1,452,344,1,2,12
5208,1,1,1,541,1,538,345,1,2,12
5208,1,1,1,517,1,466,346,1,2,12
5208,1,2,4,460,0,540,347,2,2,12
5208,1,2,3,538,1,658,348,1,2,12
5208,1,1,2,475,1,592,349,1,2,12
5208,1,1,1,548,1,502,350,1,2,12
5208,1,1,1,400,1,643,351,1,2,12
5208,1,2,3,552,1,626,352,1,2,12
5208,1,2,3,322,1,562,353,1,2,12
5208,1,1,2,333,1,611,354,1,2,12
5208,1,2,3,545,1,654,355,1,2,12
5208,1,2,4,510,1,531,356,1,2,12
5208,1,2,4,433,1,690,357,1,2,12
5208,1,2,4,584,1,1053,358,1,2,12
5208,1,1,1,342,1,558,359,1,2,12
5208,1,1,2,519,1,638,360,1,2,12
5208,1,1,2,349,1,695,361,1,2,12
5208,1,2,3,407,1,739,362,1,2,12
5208,1,1,1,533,0,594,363,2,2,12
5208,1,1,2,340,0,935,364,2,2,12
5208,1,1,1,415,0,845,365,2,2,12
5208,1,1,1,372,0,0,366,3,2,12
5208,1,2,3,339,0,1418,367,2,2,12
5208,1,2,4,370,1,1249,368,1,2,12
5209,1,2,3,512,0,0,17,3,1,2
5209,1,2,3,493,1,78,18,1,1,2
5209,1,1,2,590,0,258,19,2,1,2
5209,1,2,3,329,0,0,20,3,1,2
5209,1,1,1,531,0,445,21,2,1,2
5209,1,2,4,536,0,657,22,2,1,2
5209,1,1,1,385,0,454,23,2,1,2
5209,1,1,1,434,0,422,24,2,1,2
5209,1,1,2,473,0,500,25,2,1,2
5209,1,2,4,503,1,380,26,1,1,2
5209,1,1,2,345,1,1087,27,1,1,2
5209,1,1,2,434,0,301,28,2,1,2
5209,1,2,4,385,1,827,29,1,1,2
5209,1,1,1,391,1,595,30,1,1,2
5209,1,2,4,354,0,0,31,3,1,2
5209,1,2,3,395,0,438,32,2,1,2
5209,1,1,1,316,1,491,33,1,1,2
5209,1,2,3,527,0,0,34,3,1,2
5209,1,1,1,384,1,445,35,1,1,2
5209,1,1,2,370,0,0,36,3,1,2
5209,1,2,3,418,0,13,37,2,1,2
5209,1,2,4,545,0,748,38,2,1,2
5209,1,2,4,600,0,688,39,2,1,2
5209,1,1,2,391,0,0,40,3,1,2
5209,1,2,4,444,0,0,41,3,1,2
5209,1,2,3,505,0,0,42,3,1,2
5209,1,1,1,568,1,629,43,1,1,2
5209,1,1,2,346,1,976,44,1,1,2
5209,1,1,1,310,0,0,45,3,1,2
5209,1,2,4,581,0,280,46,2,1,2
5209,1,2,3,525,0,516,47,2,1,2
5209,1,1,2,563,0,330,48,2,1,2
5209,1,2,4,494,1,930,49,1,4,3
5209,1,1,2,373,0,682,50,2,4,3
5209,1,1,1,539,0,532,51,2,4,3
5209,1,2,4,432,0,150,52,2,4,3
5209,1,2,3,564,1,1135,53,1,4,3
5209,1,2,4,465,0,0,54,3,4,3
5209,1,1,2,493,1,550,55,1,4,3
5209,1,2,3,437,1,953,56,1,4,3
5209,1,2,4,566,1,778,57,1,4,3
5209,1,1,2,491,1,457,58,1,4,3
5209,1,2,3,558,0,0,59,3,4,3
5209,1,1,1,423,1,250,60,1,4,3
5209,1,1,1,442,0,0,61,3,4,3
5209,1,2,3,483,0,756,62,2,4,3
5209,1,1,2,486,0,331,63,2,4,3
5209,1,1,1,375,1,327,64,1,4,3
5209,1,1,1,492,0,0,65,3,4,3
5209,1,2,4,566,1,265,66,1,4,3
5209,1,2,4,319,1,436,67,1,4,3
5209,1,2,3,389,0,0,68,3,4,3
5209,1,2,3,381,0,632,69,2,4,3
5209,1,1,1,357,0,456,70,2,4,3
5209,1,2,3,565,0,0,71,3,4,3
5209,1,1,1,445,0,470,72,2,4,3
5209,1,2,3,317,0,459,73,2,4,3
5209,1,1,2,561,1,904,74,1,4,3
5209,1,2,4,541,0,349,75,2,4,3
5209,1,1,1,386,0,171,76,2,4,3
5209,1,1,2,308,0,327,77,2,4,3
5209,1,1,2,324,0,314,78,2,4,3
5209,1,2,4,420,0,226,79,2,4,3
5209,1,1,2,437,1,29,80,1,4,3
5209,1,1,2,424,0,962,81,2,4,4
5209,1,1,2,343,0,449,82,2,4,4
5209,1,2,3,577,1,819,83,1,4,4
5209,1,2,3,369,1,546,84,1,4,4
5209,1,2,3,368,1,568,85,1,4,4
5209,1,1,2,502,0,734,86,2,4,4
5209,1,1,1,377,0,1050,87,2,4,4
5209,1,1,1,569,0,0,88,3,4,4
5209,1,1,2,419,1,989,89,1,4,4
5209,1,1,1,397,1,639,90,1,4,4
5209,1,1,1,442,1,958,91,1,4,4
5209,1,2,4,475,0,410,92,2,4,4
5209,1,2,3,413,0,402,93,2,4,4
5209,1,2,4,388,0,422,94,2,4,4
5209,1,2,4,467,1,400,95,1,4,4
5209,1,2,4,491,1,398,96,1,4,4
5209,1,2,4,553,0,0,97,3,4,4
5209,1,2,4,407,0,771,98,2,4,4
5209,1,1,1,307,0,0,99,3,4,4
5209,1,2,3,430,0,337,100,2,4,4
5209,1,2,3,440,1,454,101,1,4,4
5209,1,2,3,312,0,0,102,3,4,4
5209,1,1,1,475,0,299,103,2,4,4
5209,1,1,2,511,0,52,104,2,4,4
5209,1,1,1,385,0,0,105,3,4,4
5209,1,1,2,363,1,816,106,1,4,4
5209,1,1,2,417,0,398,107,2,4,4
5209,1,1,1,347,0,396,108,2,4,4
5209,1,2,3,387,1,273,109,1,4,4
5209,1,2,4,492,1,406,110,1,4,4
5209,1,2,4,421,0,0,111,3,4,4
5209,1,1,2,539,0,404,112,2,4,4
5209,1,1,1,525,0,857,113,2,4,5
5209,1,1,2,446,0,215,114,2,4,5
5209,1,2,4,507,0,315,115,2,4,5
5209,1,2,3,479,0,462,116,2,4,5
5209,1,1,1,363,1,503,117,1,4,5
5209,1,1,1,388,0,0,118,3,4,5
5209,1,2,4,407,0,0,119,3,4,5
5209,1,2,4,340,0,0,120,3,4,5
5209,1,2,3,347,0,498,121,2,4,5
5209,1,2,3,579,0,1318,122,2,4,5
5209,1,1,2,518,1,546,123,1,4,5
5209,1,1,1,322,0,429,124,2,4,5
5209,1,1,2,518,0,268,125,2,4,5
5209,1,1,2,542,0,488,126,2,4,5
5209,1,2,4,482,1,141,127,1,4,5
5209,1,2,3,549,0,34,128,2,4,5
5209,1,1,2,437,0,424,129,2,4,5
5209,1,2,3,576,1,648,130,1,4,5
5209,1,2,4,537,1,263,131,1,4,5
5209,1,1,2,410,0,310,132,2,4,5
5209,1,1,1,385,0,299,133,2,4,5
5209,1,1,1,345,0,0,134,3,4,5
5209,1,2,4,576,1,260,135,1,4,5
5209,1,1,2,412,0,56,136,2,4,5
5209,1,1,1,437,0,0,137,3,4,5
5209,1,1,1,495,0,0,138,3,4,5
5209,1,1,2,590,0,177,139,2,4,5
5209,1,2,4,530,1,71,140,1,4,5
5209,1,2,3,397,1,421,141,1,4,5
5209,1,2,3,430,0,431,142,2,4,5
5209,1,2,4,383,0,403,143,2,4,5
5209,1,2,3,341,0,374,144,2,4,5
5209,1,1,2,593,0,548,145,2,4,6
5209,1,2,3,520,1,427,146,1,4,6
5209,1,1,1,344,1,441,147,1,4,6
5209,1,2,4,384,1,773,148,1,4,6
5209,1,1,1,499,1,165,149,1,4,6
5209,1,2,4,510,1,322,150,1,4,6
5209,1,1,1,497,1,642,151,1,4,6
5209,1,2,3,525,0,325,152,2,4,6
5209,1,2,4,503,0,288,153,2,4,6
5209,1,2,3,398,0,242,154,2,4,6
5209,1,1,1,301,0,0,155,3,4,6
5209,1,1,2,355,0,380,156,2,4,6
5209,1,2,4,468,1,277,157,1,4,6
5209,1,2,3,469,1,387,158,1,4,6
5209,1,1,2,589,0,0,159,3,4,6
5209,1,1,2,460,0,453,160,2,4,6
5209,1,2,4,340,1,533,161,1,4,6
5209,1,2,3,551,1,419,162,1,4,6
5209,1,2,4,468,1,733,163,1,4,6
5209,1,2,4,584,0,394,164,2,4,6
5209,1,1,2,565,0,446,165,2,4,6
5209,1,1,2,307,0,0,166,3,4,6
5209,1,1,2,312,0,0,167,3,4,6
5209,1,1,1,515,0,305,168,2,4,6
5209,1,1,1,352,1,362,169,1,4,6
5209,1,1,1,359,1,344,170,1,4,6
5209,1,2,3,533,1,758,171,1,4,6
5209,1,2,4,485,0,453,172,2,4,6
5209,1,1,2,380,0,0,173,3,4,6
5209,1,2,3,445,1,565,174,1,4,6
5209,1,1,1,350,1,453,175,1,4,6
5209,1,2,3,461,1,415,176,1,4,6
5209,1,2,4,316,0,62,177,2,4,7
5209,1,1,1,596,1,256,178,1,4,7
5209,1,1,1,315,0,341,179,2,4,7
5209,1,1,2,371,0,208,180,2,4,7
5209,1,1,2,503,1,422,181,1,4,7
5209,1,1,2,349,1,345,182,1,4,7
5209,1,2,3,420,0,370,183,2,4,7
5209,1,1,2,360,1,485,184,1,4,7
5209,1,2,3,380,1,500,185,1,4,7
5209,1,1,1,345,0,318,186,2,4,7
5209,1,2,4,505,0,56,187,2,4,7
5209,1,2,3,453,1,489,188,1,4,7
5209,1,2,3,316,0,452,189,2,4,7
5209,1,2,4,563,0,332,190,2,4,7
5209,1,1,1,377,0,142,191,2,4,7
5209,1,2,4,562,1,1432,192,1,4,7
5209,1,1,1,547,1,744,193,1,4,7
5209,1,2,4,473,0,413,194,2,4,7
5209,1,2,4,481,1,565,195,1,4,7
5209,1,1,2,343,1,771,196,1,4,7
5209,1,1,2,462,1,306,197,1,4,7
5209,1,1,2,410,1,309,198,1,4,7
5209,1,2,4,589,1,1,199,1,4,7
5209,1,1,1,512,0,48,200,2,4,7
5209,1,2,3,302,0,466,201,2,4,7
5209,1,2,3,306,1,414,202,1,4,7
5209,1,1,1,312,1,299,203,1,4,7
5209,1,2,3,349,1,290,204,1,4,7
5209,1,2,4,328,0,300,205,2,4,7
5209,1,2,3,334,0,104,206,2,4,7
5209,1,1,2,558,0,692,207,2,4,7
5209,1,1,1,300,0,76,208,2,4,7
5209,1,1,1,310,1,12,209,1,4,8
5209,1,2,4,410,0,349,210,2,4,8
5209,1,1,1,473,1,323,211,1,4,8
5209,1,2,4,340,1,268,212,1,4,8
5209,1,1,2,506,0,256,213,2,4,8
5209,1,2,3,598,1,778,214,1,4,8
5209,1,2,4,461,0,136,215,2,4,8
5209,1,1,2,582,0,60,216,2,4,8
5209,1,2,4,395,0,524,217,2,4,8
5209,1,2,3,448,0,69,218,2,4,8
5209,1,1,2,559,0,202,219,2,4,8
5209,1,1,1,487,0,153,220,2,4,8
5209,1,1,1,593,1,899,221,1,4,8
5209,1,1,2,354,0,41,222,2,4,8
5209,1,2,3,416,1,306,223,1,4,8
5209,1,2,3,564,0,318,224,2,4,8
5209,1,1,2,403,0,295,225,2,4,8
5209,1,1,1,348,0,462,226,2,4,8
5209,1,1,2,427,0,379,227,2,4,8
5209,1,2,3,494,1,173,228,1,4,8
5209,1,2,4,544,0,272,229,2,4,8
5209,1,2,4,386,1,277,230,1,4,8
5209,1,2,4,566,1,25,231,1,4,8
5209,1,1,1,481,1,187,232,1,4,8
5209,1,2,3,502,0,23,233,2,4,8
5209,1,1,1,363,1,328,234,1,4,8
5209,1,2,3,526,1,376,235,1,4,8
5209,1,2,3,320,0,477,236,2,4,8
5209,1,2,4,495,0,338,237,2,4,8
5209,1,1,2,417,1,233,238,1,4,8
5209,1,1,2,382,1,289,239,1,4,8
5209,1,1,1,450,0,190,240,2,4,8
5209,1,2,3,325,1,200,241,1,4,9
5209,1,1,1,492,1,138,242,1,4,9
5209,1,1,2,518,1,265,243,1,4,9
5209,1,2,3,579,1,572,244,1,4,9
5209,1,1,2,417,0,321,245,2,4,9
5209,1,2,4,427,0,321,246,2,4,9
5209,1,1,2,372,0,183,247,2,4,9
5209,1,2,4,376,0,37,248,2,4,9
5209,1,1,1,473,0,0,249,3,4,9
5209,1,1,2,539,1,333,250,1,4,9
5209,1,1,1,522,1,434,251,1,4,9
5209,1,2,3,526,0,334,252,2,4,9
5209,1,1,1,359,1,393,253,1,4,9
5209,1,2,4,534,1,320,254,1,4,9
5209,1,2,3,369,1,417,255,1,4,9
5209,1,2,4,514,0,385,256,2,4,9
5209,1,1,1,429,1,368,257,1,4,9
5209,1,2,3,387,0,322,258,2,4,9
5209,1,1,1,326,1,416,259,1,4,9
5209,1,2,4,552,0,358,260,2,4,9
5209,1,2,3,558,0,0,261,3,4,9
5209,1,2,4,310,0,366,262,2,4,9
5209,1,2,3,578,1,29,263,1,4,9
5209,1,1,2,480,0,74,264,2,4,9
5209,1,1,2,397,0,140,265,2,4,9
5209,1,1,1,480,1,1038,266,1,4,9
5209,1,2,4,327,1,359,267,1,4,9
5209,1,2,3,351,1,502,268,1,4,9
5209,1,2,4,337,1,600,269,1,4,9
5209,1,1,1,355,1,649,270,1,4,9
5209,1,1,2,379,1,559,271,1,4,9
5209,1,1,2,411,0,144,272,2,4,9
5209,1,1,1,362,1,428,273,1,4,10
5209,1,2,3,485,1,135,274,1,4,10
5209,1,2,3,361,1,200,275,1,4,10
5209,1,2,3,393,0,0,276,3,4,10
5209,1,1,1,337,1,120,277,1,4,10
5209,1,1,2,593,1,119,278,1,4,10
5209,1,2,4,553,1,87,279,1,4,10
5209,1,1,2,502,0,571,280,2,4,10
5209,1,1,1,452,1,275,281,1,4,10
5209,1,1,2,444,0,283,282,2,4,10
5209,1,2,4,600,0,467,283,2,4,10
5209,1,2,4,500,1,213,284,1,4,10
5209,1,2,3,556,1,75,285,1,4,10
5209,1,1,2,468,0,552,286,2,4,10
5209,1,1,1,327,1,408,287,1,4,10
5209,1,2,4,600,1,1,288,1,4,10
5209,1,1,2,513,1,139,289,1,4,10
5209,1,1,2,337,0,332,290,2,4,10
5209,1,1,1,530,0,335,291,2,4,10
5209,1,1,1,365,1,316,292,1,4,10
5209,1,2,4,456,0,282,293,2,4,10
5209,1,2,3,371,1,198,294,1,4,10
5209,1,1,1,328,1,210,295,1,4,10
5209,1,2,4,593,0,540,296,2,4,10
5209,1,2,4,319,1,95,297,1,4,10
5209,1,1,2,492,0,445,298,2,4,10
5209,1,2,3,379,1,66,299,1,4,10
5209,1,2,4,301,0,94,300,2,4,10
5209,1,2,3,481,1,343,301,1,4,10
5209,1,2,3,430,1,223,302,1,4,10
5209,1,1,2,506,0,96,303,2,4,10
5209,1,1,1,359,1,144,304,1,4,10
5209,1,1,2,374,0,415,305,2,4,11
5209,1,1,2,330,1,243,306,1,4,11
5209,1,2,4,360,1,266,307,1,4,11
5209,1,1,1,394,1,272,308,1,4,11
5209,1,2,4,330,1,244,309,1,4,11
5209,1,1,1,340,1,204,310,1,4,11
5209,1,1,1,498,1,454,311,1,4,11
5209,1,2,3,531,0,448,312,2,4,11
5209,1,2,4,321,0,27,313,2,4,11
5209,1,2,3,503,0,346,314,2,4,11
5209,1,1,2,546,0,124,315,2,4,11
5209,1,2,3,354,0,167,316,2,4,11
5209,1,2,4,572,0,0,317,3,4,11
5209,1,1,1,560,1,52,318,1,4,11
5209,1,2,3,522,1,1377,319,1,4,11
5209,1,1,2,445,0,36,320,2,4,11
5209,1,2,4,414,0,0,321,3,4,11
5209,1,1,2,503,1,43,322,1,4,11
5209,1,2,3,586,0,154,323,2,4,11
5209,1,1,2,523,0,29,324,2,4,11
5209,1,2,4,404,0,405,325,2,4,11
5209,1,2,4,402,0,467,326,2,4,11
5209,1,1,2,427,0,346,327,2,4,11
5209,1,1,1,448,1,164,328,1,4,11
5209,1,2,3,401,1,530,329,1,4,11
5209,1,1,1,560,1,1463,330,1,4,11
5209,1,1,1,361,1,105,331,1,4,11
5209,1,1,2,309,1,308,332,1,4,11
5209,1,1,1,337,1,317,333,1,4,11
5209,1,2,4,334,0,275,334,2,4,11
5209,1,2,3,451,1,111,335,1,4,11
5209,1,2,3,408,1,142,336,1,4,11
5209,1,1,1,362,1,337,337,1,4,12
5209,1,1,2,539,0,334,338,2,4,12
5209,1,1,1,486,1,38,339,1,4,12
5209,1,2,4,418,0,54,340,2,4,12
5209,1,2,3,373,1,67,341,1,4,12
5209,1,2,4,487,0,28,342,2,4,12
5209,1,2,3,370,0,118,343,2,4,12
5209,1,2,4,470,0,104,344,2,4,12
5209,1,1,2,574,0,0,345,3,4,12
5209,1,1,1,309,0,87,346,2,4,12
5209,1,2,4,437,0,0,347,3,4,12
5209,1,1,2,488,1,64,348,1,4,12
5209,1,2,3,502,0,0,349,3,4,12
5209,1,2,3,440,0,300,350,2,4,12
5209,1,1,1,337,1,353,351,1,4,12
5209,1,1,2,577,0,178,352,2,4,12
5209,1,2,4,492,0,564,353,2,4,12
5209,1,1,2,313,0,1444,354,2,4,12
5209,1,2,3,387,1,214,355,1,4,12
5209,1,1,1,374,1,246,356,1,4,12
5209,1,2,3,576,1,347,357,1,4,12
5209,1,2,4,501,0,270,358,2,4,12
5209,1,2,3,327,1,315,359,1,4,12
5209,1,1,2,434,0,62,360,2,4,12
5209,1,1,1,465,1,103,361,1,4,12
5209,1,1,1,561,1,385,362,1,4,12
5209,1,1,2,467,0,1,363,2,4,12
5209,1,1,2,419,1,272,364,1,4,12
5209,1,2,4,444,0,30,365,2,4,12
5209,1,2,4,417,0,54,366,2,4,12
5209,1,2,3,521,1,41,367,1,4,12
5209,1,1,1,399,1,121,368,1,4,12
5210,1,2,4,527,0,379,17,2,1,2
5210,1,1,1,427,1,284,18,1,1,2
5210,1,1,2,535,0,212,19,2,1,2
5210,1,2,4,467,1,212,20,1,1,2
5210,1,2,3,403,1,251,21,1,1,2
5210,1,1,1,530,0,609,22,2,1,2
5210,1,1,1,589,0,616,23,2,1,2
5210,1,2,3,350,0,245,24,2,1,2
5210,1,2,3,549,0,284,25,2,1,2
5210,1,2,4,455,1,237,26,1,1,2
5210,1,2,4,335,1,717,27,1,1,2
5210,1,1,2,511,0,370,28,2,1,2
5210,1,2,3,358,0,432,29,2,1,2
5210,1,1,1,403,0,500,30,2,1,2
5210,1,1,2,412,1,307,31,1,1,2
5210,1,1,2,468,0,188,32,2,1,2
5210,1,2,4,561,0,117,33,2,1,2
5210,1,2,3,523,0,5,34,2,1,2
5210,1,1,2,350,0,280,35,2,1,2
5210,1,1,2,586,1,287,36,1,1,2
5210,1,2,3,409,1,112,37,1,1,2
5210,1,1,1,411,0,308,38,2,1,2
5210,1,1,1,354,0,376,39,2,1,2
5210,1,2,3,495,0,263,40,2,1,2
5210,1,2,3,372,0,652,41,2,1,2
5210,1,2,4,340,0,534,42,2,1,2
5210,1,2,4,441,0,284,43,2,1,2
5210,1,2,4,512,0,346,44,2,1,2
5210,1,1,1,314,0,511,45,2,1,2
5210,1,1,2,356,0,426,46,2,1,2
5210,1,1,1,310,0,348,47,2,1,2
5210,1,1,2,319,0,376,48,2,1,2
5210,1,1,2,398,0,326,49,2,4,3
5210,1,1,2,600,1,502,50,1,4,3
5210,1,2,3,403,0,517,51,2,4,3
5210,1,2,3,325,0,450,52,2,4,3
5210,1,2,3,368,0,341,53,2,4,3
5210,1,2,4,420,1,269,54,1,4,3
5210,1,2,4,556,0,387,55,2,4,3
5210,1,2,3,510,1,280,56,1,4,3
5210,1,2,4,471,1,363,57,1,4,3
5210,1,1,2,325,0,424,58,2,4,3
5210,1,1,1,448,0,369,59,2,4,3
5210,1,1,1,442,1,278,60,1,4,3
5210,1,2,4,536,1,94,61,1,4,3
5210,1,1,1,406,1,320,62,1,4,3
5210,1,1,2,354,1,767,63,1,4,3
5210,1,1,1,480,1,743,64,1,4,3
5210,1,2,4,508,0,0,65,3,4,3
5210,1,2,3,417,0,246,66,2,4,3
5210,1,2,4,367,1,512,67,1,4,3
5210,1,2,4,554,1,524,68,1,4,3
5210,1,1,1,418,1,1212,69,1,4,3
5210,1,1,1,359,0,0,70,3,4,3
5210,1,1,2,438,0,259,71,2,4,3
5210,1,1,2,502,1,475,72,1,4,3
5210,1,2,4,414,0,782,73,2,4,3
5210,1,2,3,324,0,583,74,2,4,3
5210,1,1,1,369,1,841,75,1,4,3
5210,1,2,3,500,0,1167,76,2,4,3
5210,1,2,3,396,0,0,77,3,4,3
5210,1,1,2,415,0,323,78,2,4,3
5210,1,1,1,416,0,368,79,2,4,3
